File: docs/GuiliangJun25_tutorial_output/integrals/MA2-00003_spotsmasked.chi
MA2-00003.tif Azm= 0.00
2-Theta Angle (Degrees)
Intensity
       2500
 1.00702   7988.31
 1.01638   7921.2
 1.02574   7888.11
 1.0351   7794.23
 1.04446   7753.55
 1.05382   7728.8
 1.06318   7644.59
 1.07254   7625.03
 1.0819   7571.28
 1.09126   7555.68
 1.10062   7526.29
 1.10998   7472.57
 1.11934   7414.07
 1.1287   7417.84
 1.13806   7390.19
 1.14742   7340.68
 1.15678   7333.85
 1.16614   7294.68
 1.1755   7259.32
 1.18486   7266.64
 1.19422   7234.6
 1.20358   7245.88
 1.21294   7240.7
 1.2223   7216.17
 1.23166   7209.77
 1.24102   7174.14
 1.25038   7184.47
 1.25974   7135.53
 1.2691   7156.35
 1.27846   7167.23
 1.28782   7188.85
 1.29718   7189.06
 1.30654   7191.31
 1.3159   7175.32
 1.32526   7203.11
 1.33462   7207.72
 1.34398   7197.44
 1.35334   7213.23
 1.3627   7286.14
 1.37206   7266.34
 1.38142   7261.25
 1.39078   7288.01
 1.40014   7291.32
 1.4095   7343.96
 1.41886   7361.05
 1.42822   7425.51
 1.43758   7455
 1.44694   7536.05
 1.4563   7573.85
 1.46566   7632.24
 1.47502   7657.07
 1.48438   7694.88
 1.49374   7743.21
 1.5031   7773.67
 1.51246   7804.62
 1.52182   7801.48
 1.53118   7808.52
 1.54054   7816.27
 1.5499   7789.81
 1.55926   7778.5
 1.56862   7743.58
 1.57798   7749.72
 1.58734   7746.98
 1.5967   7708.44
 1.60606   7734.45
 1.61542   7734.98
 1.62478   7732.55
 1.63414   7697.98
 1.6435   7733.48
 1.65286   7729.47
 1.66222   7717.33
 1.67158   7750.66
 1.68094   7765.58
 1.6903   7701.54
 1.69966   7743.03
 1.70902   7718.35
 1.71838   7749.86
 1.72774   7761.7
 1.7371   7772.06
 1.74646   7795.18
 1.75582   7774.27
 1.76518   7825.31
 1.77454   7829.29
 1.7839   7868.88
 1.79326   7859.37
 1.80262   7898.98
 1.81198   7933.28
 1.82134   7954.24
 1.8307   8011.07
 1.84006   8048
 1.84942   8053.23
 1.85878   8116.87
 1.86814   8134.19
 1.8775   8159.01
 1.88686   8209.06
 1.89622   8268.15
 1.90558   8314.78
 1.91494   8364.25
 1.9243   8433.47
 1.93366   8454.24
 1.94302   8499.34
 1.95238   8559.12
 1.96174   8583.97
 1.9711   8644.28
 1.98046   8680.28
 1.98982   8734.51
 1.99918   8771.12
 2.00854   8798.01
 2.0179   8858.79
 2.02726   8923.91
 2.03662   8927.9
 2.04598   8982.11
 2.05534   9045.28
 2.0647   9068.53
 2.07406   9146.26
 2.08342   9198.82
 2.09278   9293.93
 2.10214   9344.69
 2.1115   9408.92
 2.12086   9454.07
 2.13022   9488.33
 2.13958   9548.03
 2.14894   9646.68
 2.1583   9747.45
 2.16766   9925.95
 2.17702   10129.9
 2.18638   10444.8
 2.19574   10966.4
 2.2051   11888.3
 2.21446   13658.2
 2.22382   16803.2
 2.23318   21612.4
 2.24254   26208
 2.2519   27421.4
 2.26126   24275.7
 2.27062   18926.6
 2.27998   14815.2
 2.28934   12560.4
 2.2987   11550.8
 2.30806   11112.2
 2.31742   10910.3
 2.32678   10877.6
 2.33614   10843.6
 2.3455   10876.2
 2.35486   10913.6
 2.36422   10941.6
 2.37358   10995.6
 2.38294   11044.4
 2.3923   11116.6
 2.40166   11182.6
 2.41102   11261
 2.42038   11318.1
 2.42974   11381.3
 2.4391   11461.3
 2.44846   11531.2
 2.45782   11610.4
 2.46718   11696.2
 2.47654   11751.3
 2.4859   11840.3
 2.49526   11898.6
 2.50462   12014.7
 2.51398   12070.9
 2.52334   12125.2
 2.5327   12201.9
 2.54206   12274.6
 2.55142   12347.2
 2.56078   12408.1
 2.57014   12475.8
 2.5795   12545.2
 2.58886   12618.1
 2.59822   12676.5
 2.60758   12721
 2.61694   12769.8
 2.6263   12818.6
 2.63566   12848.3
 2.64502   12871.3
 2.65438   12915.6
 2.66374   12953.1
 2.6731   12983.9
 2.68246   12992.4
 2.69182   13028.1
 2.70118   13049.7
 2.71054   13086.6
 2.7199   13096.1
 2.72926   13101
 2.73862   13072.9
 2.74798   13052.3
 2.75734   13044.8
 2.7667   13054
 2.77606   13037.9
 2.78542   12998.7
 2.79478   13001.7
 2.80414   12986.6
 2.8135   12947.6
 2.82286   12908.2
 2.83222   12892.9
 2.84158   12875.1
 2.85094   12833.3
 2.8603   12804.5
 2.86966   12770
 2.87902   12731.1
 2.88838   12681.3
 2.89774   12642.9
 2.9071   12612.2
 2.91646   12589.8
 2.92582   12545.5
 2.93518   12515.6
 2.94454   12472.6
 2.9539   12415.6
 2.96326   12357
 2.97262   12330.1
 2.98198   12272.5
 2.99134   12212.9
 3.0007   12158.6
 3.01006   12119.1
 3.01942   12041.3
 3.02878   12006.9
 3.03814   11940.3
 3.0475   11883.8
 3.05686   11807
 3.06622   11766.6
 3.07558   11715.2
 3.08494   11662.4
 3.0943   11626.3
 3.10366   11544.8
 3.11302   11510.8
 3.12238   11483.2
 3.13174   11446.2
 3.1411   11401.4
 3.15046   11376.7
 3.15982   11317.5
 3.16918   11292.6
 3.17854   11232.4
 3.1879   11227.6
 3.19726   11196.5
 3.20662   11167.6
 3.21598   11120.9
 3.22534   11095.3
 3.2347   11070.9
 3.24406   10998.8
 3.25342   10974
 3.26278   10986.4
 3.27214   10949.3
 3.2815   10914.9
 3.29086   10921
 3.30022   10895.8
 3.30958   10889.9
 3.31894   10869.3
 3.3283   10863.7
 3.33766   10848.9
 3.34702   10820.9
 3.35638   10799.2
 3.36574   10808.7
 3.3751   10804.1
 3.38446   10790.3
 3.39382   10785.6
 3.40318   10800.3
 3.41254   10812.5
 3.4219   10796.6
 3.43126   10786.7
 3.44062   10813
 3.44998   10833.7
 3.45934   10797.4
 3.4687   10802.3
 3.47806   10813.3
 3.48742   10807.3
 3.49678   10783.9
 3.50614   10782.6
 3.5155   10795
 3.52486   10774.6
 3.53422   10784.4
 3.54358   10820.8
 3.55294   10796.7
 3.5623   10736.3
 3.57166   10766.8
 3.58102   10799.5
 3.59038   10772.1
 3.59974   10735.3
 3.6091   10745.7
 3.61846   10790.3
 3.62782   10722.4
 3.63718   10677.9
 3.64654   10706.6
 3.6559   10751.3
 3.66526   10641.8
 3.67462   10600.9
 3.68398   10651.1
 3.69334   10603.3
 3.7027   10476.8
 3.71206   10484.4
 3.72142   10438.5
 3.73078   10320.4
 3.74014   10177.7
 3.7495   10155.3
 3.75886   10108.4
 3.76822   9976.4
 3.77758   9873.09
 3.78694   9880.16
 3.7963   9856.45
 3.80566   9646.61
 3.81502   9608.67
 3.82438   9692.56
 3.83374   9572.2
 3.8431   9416.65
 3.85246   9441.95
 3.86182   9437.88
 3.87118   9350.91
 3.88054   9203.36
 3.8899   9171.02
 3.89926   9095.52
 3.90862   9021.51
 3.91798   8970.52
 3.92734   8947.99
 3.9367   8890.07
 3.94606   8822.89
 3.95542   8826.8
 3.96478   8748.83
 3.97414   8670.42
 3.9835   8671.55
 3.99286   8572.74
 4.00222   8534.46
 4.01158   8538.97
 4.02094   8420.66
 4.0303   8444.02
 4.03966   8447.88
 4.04902   8345.06
 4.05838   8289.7
 4.06774   8311.82
 4.0771   8248.94
 4.08646   8198.7
 4.09582   8131.16
 4.10518   8165.22
 4.11454   8139.29
 4.1239   8024.43
 4.13326   8011.97
 4.14262   8037.63
 4.15198   8028.86
 4.16134   7913.63
 4.1707   7885.21
 4.18006   7928.73
 4.18942   7877.81
 4.19878   7807.46
 4.20814   7829.82
 4.2175   7922.5
 4.22686   7826.72
 4.23622   7719.82
 4.24558   7806.65
 4.25494   7788.17
 4.2643   7792.24
 4.27366   7787.88
 4.28302   7822.75
 4.29238   7782.39
 4.30174   7702.05
 4.3111   7693.5
 4.32046   7737.76
 4.32982   7731.71
 4.33918   7660.97
 4.34854   7690.4
 4.3579   7693.86
 4.36726   7644.42
 4.37662   7619.97
 4.38598   7613.27
 4.39534   7668.7
 4.4047   7669.36
 4.41406   7632.71
 4.42342   7662.54
 4.43278   7768.28
 4.44214   7785.43
 4.4515   7875.05
 4.46086   8174.14
 4.47022   8566.98
 4.47958   9125.81
 4.48894   9839.51
 4.4983   10323.2
 4.50766   10260.9
 4.51702   9572.08
 4.52638   8707.98
 4.53574   7987.56
 4.5451   7519.37
 4.55446   7254.05
 4.56382   7133.5
 4.57318   7035.8
 4.58254   6974.64
 4.5919   6904.8
 4.60126   6868.17
 4.61062   6848.9
 4.61998   6799.72
 4.62934   6773.44
 4.6387   6756.91
 4.64806   6746.64
 4.65742   6706.42
 4.66678   6737.31
 4.67614   6787.79
 4.6855   6922.92
 4.69486   7241.19
 4.70422   7867.29
 4.71358   8824.64
 4.72294   9747.5
 4.7323   10069.9
 4.74166   9646.98
 4.75102   8813.41
 4.76038   7962.29
 4.76974   7347.87
 4.7791   6968.89
 4.78846   6750.19
 4.79782   6592.22
 4.80718   6533.43
 4.81654   6480.71
 4.8259   6476.52
 4.83526   6489.84
 4.84462   6564.69
 4.85398   6748.31
 4.86334   7153.55
 4.8727   7939.9
 4.88206   9340.09
 4.89142   11115.9
 4.90078   12500.4
 4.91014   12597.2
 4.9195   11410
 4.92886   9753.69
 4.93822   8338.97
 4.94758   7408.2
 4.95694   6858.29
 4.9663   6554.66
 4.97566   6394.75
 4.98502   6295.65
 4.99438   6226.15
 5.00374   6183.98
 5.0131   6154.82
 5.02246   6149.06
 5.03182   6116.92
 5.04118   6112.28
 5.05054   6124.33
 5.0599   6171.29
 5.06926   6278.47
 5.07862   6428.76
 5.08798   6733.9
 5.09734   7395.21
 5.1067   9058.51
 5.11606   12215.9
 5.12542   20006.5
 5.13478   38028.2
 5.14414   50512.9
 5.1535   41660.8
 5.16286   26442.3
 5.17222   14941.7
 5.18158   9373.16
 5.19094   7247.75
 5.2003   6653.96
 5.20966   6381.03
 5.21902   6198.23
 5.22838   6065.71
 5.23774   6013.8
 5.2471   5952.82
 5.25646   5906.9
 5.26582   5858.8
 5.27518   5851.4
 5.28454   5822.46
 5.2939   5820.9
 5.30326   5796.04
 5.31262   5798.04
 5.32198   5790.49
 5.33134   5771.55
 5.3407   5769.08
 5.35006   5767.23
 5.35942   5767.19
 5.36878   5762.4
 5.37814   5762.01
 5.3875   5750.99
 5.39686   5777.78
 5.40622   5793.02
 5.41558   5805.47
 5.42494   5822
 5.4343   5870.56
 5.44366   5899.37
 5.45302   5985.85
 5.46238   6077.33
 5.47174   6237.96
 5.4811   6527.7
 5.49046   6921.79
 5.49982   7655.45
 5.50918   9095.73
 5.51854   11774.6
 5.5279   16246.5
 5.53726   22223.5
 5.54662   27433.7
 5.55598   28749.6
 5.56534   25310.1
 5.5747   19594.8
 5.58406   14343.6
 5.59342   10780.6
 5.60278   8642.39
 5.61214   7486.93
 5.6215   6815.15
 5.63086   6419.4
 5.64022   6194.54
 5.64958   6059.11
 5.65894   5950.05
 5.6683   5876.76
 5.67766   5826.9
 5.68702   5797.71
 5.69638   5758.35
 5.70574   5737.02
 5.7151   5720.01
 5.72446   5730.51
 5.73382   5731.85
 5.74318   5725.5
 5.75254   5766.14
 5.7619   5773.64
 5.77126   5758.11
 5.78062   5742.34
 5.78998   5716.71
 5.79934   5726.2
 5.8087   5705.4
 5.81806   5689.08
 5.82742   5694.92
 5.83678   5691.01
 5.84614   5666.78
 5.8555   5695.69
 5.86486   5721.05
 5.87422   5743.01
 5.88358   5792.26
 5.89294   5865.13
 5.9023   6082.45
 5.91166   6631.74
 5.92102   7818.91
 5.93038   10286.8
 5.93974   12253.8
 5.9491   11989.4
 5.95846   9897.43
 5.96782   7793.66
 5.97718   6840.23
 5.98654   6602
 5.9959   6466.45
 6.00526   6303.85
 6.01462   6145.24
 6.02398   6004.14
 6.03334   5873.67
 6.0427   5800.78
 6.05206   5800.55
 6.06142   5780.8
 6.07078   5740.08
 6.08014   5755.92
 6.0895   5749.86
 6.09886   5762.59
 6.10822   5728.27
 6.11758   5746.52
 6.12694   5745.54
 6.1363   5744.06
 6.14566   5732.41
 6.15502   5754.57
 6.16438   5769.18
 6.17374   5770.04
 6.1831   5754.8
 6.19246   5789
 6.20182   5789.38
 6.21118   5797.26
 6.22054   5784.71
 6.2299   5819.36
 6.23926   5834.54
 6.24862   5819.71
 6.25798   5826.13
 6.26734   5837.73
 6.2767   5868.81
 6.28606   5847.37
 6.29542   5856.81
 6.30478   5887.22
 6.31414   5884.79
 6.3235   5880.39
 6.33286   5903.51
 6.34222   5908.56
 6.35158   5909.16
 6.36094   5905.16
 6.3703   5898.61
 6.37966   5904.29
 6.38902   5921.47
 6.39838   5908.74
 6.40774   5952.2
 6.4171   5978.48
 6.42646   5955.96
 6.43582   5963.63
 6.44518   6005.2
 6.45454   5983.53
 6.4639   5977.63
 6.47326   5969.04
 6.48262   5981.34
 6.49198   6005.16
 6.50134   5996.63
 6.5107   6012.29
 6.52006   6041.55
 6.52942   6023.04
 6.53878   6041.12
 6.54814   6080.31
 6.5575   6112.62
 6.56686   6113.36
 6.57622   6119.78
 6.58558   6158.13
 6.59494   6188.11
 6.6043   6194.65
 6.61366   6193
 6.62302   6226.66
 6.63238   6232.94
 6.64174   6228.05
 6.6511   6231.02
 6.66046   6297.45
 6.66982   6304.74
 6.67918   6319.62
 6.68854   6347.94
 6.6979   6380.8
 6.70726   6431.92
 6.71662   6443.46
 6.72598   6478.51
 6.73534   6569.4
 6.7447   6582.75
 6.75406   6594.74
 6.76342   6607.9
 6.77278   6666.23
 6.78214   6618.19
 6.7915   6616
 6.80086   6587.82
 6.81022   6591.78
 6.81958   6620.51
 6.82894   6607.98
 6.8383   6607.32
 6.84766   6683.68
 6.85702   6626.43
 6.86638   6643.08
 6.87574   6671.9
 6.8851   6673.7
 6.89446   6688.26
 6.90382   6745.33
 6.91318   6766.64
 6.92254   6820.78
 6.9319   6835.73
 6.94126   6859
 6.95062   6940.4
 6.95998   7035.48
 6.96934   7081.11
 6.9787   7253.85
 6.98806   7520.95
 6.99742   7883.68
 7.00678   8428.28
 7.01614   9042.51
 7.0255   9554.47
 7.03486   9657.03
 7.04422   9311.95
 7.05358   8713.58
 7.06294   8203.93
 7.0723   7735.51
 7.08166   7355.54
 7.09102   7068.48
 7.10038   6928.97
 7.10974   6802.09
 7.1191   6731.28
 7.12846   6702.03
 7.13782   6664.64
 7.14718   6646.98
 7.15654   6617.15
 7.1659   6591.17
 7.17526   6596.86
 7.18462   6568.38
 7.19398   6551.58
 7.20334   6529.46
 7.2127   6548.42
 7.22206   6516.86
 7.23142   6514.66
 7.24078   6517.06
 7.25014   6553.98
 7.2595   6545.43
 7.26886   6555.21
 7.27822   6546.22
 7.28758   6538.93
 7.29694   6509.06
 7.3063   6509.83
 7.31566   6511.44
 7.32502   6531.49
 7.33438   6531.55
 7.34374   6543.62
 7.3531   6560.58
 7.36246   6558.52
 7.37182   6539.26
 7.38118   6529.12
 7.39054   6507.46
 7.3999   6488.54
 7.40926   6467.95
 7.41862   6438.43
 7.42798   6428.61
 7.43734   6429.18
 7.4467   6429.49
 7.45606   6435.87
 7.46542   6436.34
 7.47478   6454.54
 7.48414   6465.12
 7.4935   6462.65
 7.50286   6502.72
 7.51222   6531.97
 7.52158   6595.28
 7.53094   6673.4
 7.5403   6807.42
 7.54966   7011.03
 7.55902   7368.88
 7.56838   7927.15
 7.57774   8762.78
 7.5871   9861.34
 7.59646   11043.4
 7.60582   11813.8
 7.61518   11822.5
 7.62454   11008.1
 7.6339   9758.32
 7.64326   8560.67
 7.65262   7732.53
 7.66198   7157.97
 7.67134   6731.5
 7.6807   6512.81
 7.69006   6367.77
 7.69942   6246.12
 7.70878   6193.01
 7.71814   6127.69
 7.7275   6079.5
 7.73686   6061.18
 7.74622   6015.2
 7.75558   5958.75
 7.76494   5943.52
 7.7743   5927.75
 7.78366   5904.79
 7.79302   5860.27
 7.80238   5839.48
 7.81174   5849
 7.8211   5816.77
 7.83046   5779.01
 7.83982   5773.31
 7.84918   5753.02
 7.85854   5725.75
 7.8679   5699.92
 7.87726   5713.7
 7.88662   5702.25
 7.89598   5669.78
 7.90534   5655.83
 7.9147   5647.85
 7.92406   5649.85
 7.93342   5653.04
 7.94278   5611.89
 7.95214   5629.23
 7.9615   5628.15
 7.97086   5607.42
 7.98022   5598.58
 7.98958   5626.55
 7.99894   5656.32
 8.0083   5674.57
 8.01766   5736.71
 8.02702   5872.97
 8.03638   6115.64
 8.04574   6571.28
 8.0551   7243.97
 8.06446   8228.08
 8.07382   9360.45
 8.08318   10276.7
 8.09254   10645.8
 8.1019   10428.8
 8.11126   9692.7
 8.12062   8733.9
 8.12998   7909.98
 8.13934   7214.98
 8.1487   6615.49
 8.15806   6246.57
 8.16742   5970.93
 8.17678   5787.6
 8.18614   5661.26
 8.1955   5544.5
 8.20486   5483.64
 8.21422   5456.36
 8.22358   5434.8
 8.23294   5400.27
 8.2423   5380.2
 8.25166   5346.64
 8.26102   5328.65
 8.27038   5311.12
 8.27974   5308.63
 8.2891   5309.88
 8.29846   5322.17
 8.30782   5316.32
 8.31718   5332.01
 8.32654   5375.37
 8.3359   5431.33
 8.34526   5531.44
 8.35462   5745.77
 8.36398   6015.75
 8.37334   6509.14
 8.3827   7320.73
 8.39206   8384.98
 8.40142   9627.57
 8.41078   9971.1
 8.42014   9082.56
 8.4295   7585.06
 8.43886   6654.36
 8.44822   6033.4
 8.45758   5738.27
 8.46694   5549.78
 8.4763   5423.34
 8.48566   5339.64
 8.49502   5286.01
 8.50438   5252.73
 8.51374   5216.07
 8.5231   5197.35
 8.53246   5167.99
 8.54182   5133.32
 8.55118   5134.42
 8.56054   5117.64
 8.5699   5087.12
 8.57926   5096.3
 8.58862   5076.95
 8.59798   5076.5
 8.60734   5069.61
 8.6167   5065.19
 8.62606   5057.9
 8.63542   5057.79
 8.64478   5057.3
 8.65414   5042.91
 8.6635   5026.79
 8.67286   5027.28
 8.68222   5008.51
 8.69158   4998.2
 8.70094   5011.76
 8.7103   4991.96
 8.71966   4995.78
 8.72902   4999.29
 8.73838   5006.83
 8.74774   5007.18
 8.7571   5032.44
 8.76646   5082.98
 8.77582   5115.45
 8.78518   5192.89
 8.79454   5308.81
 8.8039   5470.91
 8.81326   5686.56
 8.82262   5951.27
 8.83198   6226.63
 8.84134   6418.39
 8.8507   6440.54
 8.86006   6273.78
 8.86942   5980.34
 8.87878   5673.76
 8.88814   5417.02
 8.8975   5250.82
 8.90686   5139.66
 8.91622   5082.41
 8.92558   5054.17
 8.93494   5041.34
 8.9443   5061.05
 8.95366   5076.98
 8.96302   5131.6
 8.97238   5195.65
 8.98174   5267.44
 8.9911   5373.96
 9.00046   5459.36
 9.00982   5520.65
 9.01918   5538.05
 9.02854   5470.65
 9.0379   5346.46
 9.04726   5215.44
 9.05662   5086.14
 9.06598   5003.36
 9.07534   4946.76
 9.0847   4906.53
 9.09406   4884.96
 9.10342   4881.59
 9.11278   4873.73
 9.12214   4874.27
 9.1315   4872.15
 9.14086   4885.48
 9.15022   4881.98
 9.15958   4898.1
 9.16894   4921.17
 9.1783   4941.83
 9.18766   4962.42
 9.19702   5023.77
 9.20638   5121.91
 9.21574   5256.56
 9.2251   5478.65
 9.23446   5807.56
 9.24382   6221.3
 9.25318   6613.5
 9.26254   6875.16
 9.2719   6883.42
 9.28126   6646.9
 9.29062   6291.13
 9.29998   5911.35
 9.30934   5611.27
 9.3187   5397.75
 9.32806   5275.38
 9.33742   5217.05
 9.34678   5207.03
 9.35614   5250.07
 9.3655   5300.76
 9.37486   5327.13
 9.38422   5325.99
 9.39358   5327.76
 9.40294   5306.68
 9.4123   5324.64
 9.42166   5376.07
 9.43102   5485.08
 9.44038   5664.77
 9.44974   5885.78
 9.4591   6115.63
 9.46846   6309.31
 9.47782   6413.84
 9.48718   6427.48
 9.49654   6324.98
 9.5059   6127.9
 9.51526   5885.7
 9.52462   5635.53
 9.53398   5407.28
 9.54334   5260.45
 9.5527   5147.59
 9.56206   5069.57
 9.57142   5026.1
 9.58078   4982.62
 9.59014   4977.92
 9.5995   4967.44
 9.60886   4962.58
 9.61822   4943.83
 9.62758   4947
 9.63694   4946.73
 9.6463   4937.52
 9.65566   4945.19
 9.66502   4954.64
 9.67438   4957.18
 9.68374   4964.73
 9.6931   4982.58
 9.70246   4998.66
 9.71182   5011.78
 9.72118   5030.49
 9.73054   5063.25
 9.7399   5106
 9.74926   5176.13
 9.75862   5260.72
 9.76798   5412.06
 9.77734   5658.79
 9.7867   6007.07
 9.79606   6432.6
 9.80542   6874.81
 9.81478   7247.87
 9.82414   7537.68
 9.8335   8025.43
 9.84286   9269.88
 9.85222   11355.5
 9.86158   13135.6
 9.87094   12369.9
 9.8803   9713.49
 9.88966   7383.79
 9.89902   6141.92
 9.90838   5575.09
 9.91774   5341.12
 9.9271   5235.92
 9.93646   5181.54
 9.94582   5129.06
 9.95518   5114.52
 9.96454   5114.37
 9.9739   5092.45
 9.98326   5096.57
 9.99262   5101.01
 10.002   5098.25
 10.0113   5101.66
 10.0207   5114.93
 10.0301   5102.46
 10.0394   5115.58
 10.0488   5146.92
 10.0581   5174.74
 10.0675   5205.37
 10.0769   5226.3
 10.0862   5208.9
 10.0956   5194.88
 10.1049   5166.58
 10.1143   5136.21
 10.1237   5118.73
 10.133   5092.23
 10.1424   5091.72
 10.1517   5079.81
 10.1611   5069.55
 10.1705   5077.19
 10.1798   5068.9
 10.1892   5056.03
 10.1985   5072.86
 10.2079   5092.1
 10.2173   5094.76
 10.2266   5085.85
 10.236   5104
 10.2453   5117.76
 10.2547   5176.2
 10.2641   5307.05
 10.2734   5612.88
 10.2828   6325.36
 10.2921   7551.36
 10.3015   8426.96
 10.3109   8189.96
 10.3202   6919.7
 10.3296   5984.07
 10.3389   5425.52
 10.3483   5219.45
 10.3577   5130.18
 10.367   5090.71
 10.3764   5076.65
 10.3857   5074.08
 10.3951   5057.75
 10.4045   5043.86
 10.4138   5047.1
 10.4232   5055.68
 10.4325   5028.29
 10.4419   5039.56
 10.4513   5028.98
 10.4606   5038.3
 10.47   5042.23
 10.4793   5039.17
 10.4887   5058.48
 10.4981   5061.52
 10.5074   5074.38
 10.5168   5073.84
 10.5261   5100.68
 10.5355   5134.5
 10.5449   5134.55
 10.5542   5140.17
 10.5636   5111.95
 10.5729   5088.39
 10.5823   5049.16
 10.5917   5022.53
 10.601   4981.67
 10.6104   4983.75
 10.6197   4981.85
 10.6291   4981.37
 10.6385   4970.5
 10.6478   4960.43
 10.6572   4969.96
 10.6665   4983.56
 10.6759   5004.06
 10.6853   5039.1
 10.6946   5097.84
 10.704   5183.52
 10.7133   5272.91
 10.7227   5325.11
 10.7321   5342.13
 10.7414   5324.92
 10.7508   5269.19
 10.7601   5167.28
 10.7695   5094.51
 10.7789   5033.65
 10.7882   4990.24
 10.7976   4943.84
 10.8069   4911.09
 10.8163   4899.89
 10.8257   4891.35
 10.835   4878.96
 10.8444   4881.15
 10.8537   4853.18
 10.8631   4854.99
 10.8725   4838.26
 10.8818   4818.01
 10.8912   4802.09
 10.9005   4790.97
 10.9099   4782.4
 10.9193   4773.33
 10.9286   4761.11
 10.938   4760.82
 10.9473   4754.71
 10.9567   4747.28
 10.9661   4735.7
 10.9754   4734.96
 10.9848   4739.76
 10.9941   4733.63
 11.0035   4734.32
 11.0129   4742.27
 11.0222   4756.2
 11.0316   4769.37
 11.0409   4776.58
 11.0503   4807.92
 11.0597   4866.27
 11.069   4926.13
 11.0784   5045.03
 11.0877   5204.11
 11.0971   5408.64
 11.1065   5580
 11.1158   5714.03
 11.1252   5723.24
 11.1345   5616.57
 11.1439   5440.03
 11.1533   5246.13
 11.1626   5071.35
 11.172   4944.16
 11.1813   4855.87
 11.1907   4784.85
 11.2001   4733.28
 11.2094   4719.87
 11.2188   4712.77
 11.2281   4713.17
 11.2375   4716.29
 11.2469   4720.19
 11.2562   4722.87
 11.2656   4714.34
 11.2749   4691.82
 11.2843   4687.06
 11.2937   4672.15
 11.303   4651.36
 11.3124   4619.63
 11.3217   4584.16
 11.3311   4565.58
 11.3405   4542.99
 11.3498   4528.84
 11.3592   4526.87
 11.3685   4526.52
 11.3779   4531.1
 11.3873   4520.16
 11.3966   4521.08
 11.406   4531.83
 11.4153   4530.45
 11.4247   4539.18
 11.4341   4553.53
 11.4434   4580.6
 11.4528   4621.8
 11.4621   4638.41
 11.4715   4691.18
 11.4809   4760.4
 11.4902   4848.8
 11.4996   4923.55
 11.5089   4978.92
 11.5183   4999.72
 11.5277   4975.45
 11.537   4904.55
 11.5464   4798.26
 11.5557   4698.49
 11.5651   4616.26
 11.5745   4558.99
 11.5838   4497.24
 11.5932   4465.36
 11.6025   4456.14
 11.6119   4438.7
 11.6213   4438.94
 11.6306   4425.04
 11.64   4406
 11.6493   4403.12
 11.6587   4384.31
 11.6681   4367.7
 11.6774   4364.52
 11.6868   4347.44
 11.6961   4352.47
 11.7055   4348.4
 11.7149   4335.26
 11.7242   4336.82
 11.7336   4322.24
 11.7429   4319.73
 11.7523   4310.95
 11.7617   4319.96
 11.771   4313.35
 11.7804   4304.11
 11.7897   4300.3
 11.7991   4294.99
 11.8085   4298.99
 11.8178   4292.61
 11.8272   4288.21
 11.8365   4289.37
 11.8459   4293.72
 11.8553   4305.58
 11.8646   4327.9
 11.874   4387.12
 11.8833   4500.22
 11.8927   4702.75
 11.9021   4865.36
 11.9114   4830
 11.9208   4662.71
 11.9301   4489.59
 11.9395   4415.4
 11.9489   4384.97
 11.9582   4406.02
 11.9676   4447.48
 11.9769   4516.13
 11.9863   4570.64
 11.9957   4625.44
 12.005   4640.63
 12.0144   4620.96
 12.0237   4569.7
 12.0331   4508.95
 12.0425   4478.04
 12.0518   4461.97
 12.0612   4469.23
 12.0705   4514.94
 12.0799   4601.66
 12.0893   4726.53
 12.0986   4880.4
 12.108   5054.77
 12.1173   5201.76
 12.1267   5260.86
 12.1361   5202.96
 12.1454   5067.78
 12.1548   4874.96
 12.1641   4689.22
 12.1735   4524.91
 12.1829   4407.81
 12.1922   4321.74
 12.2016   4259.87
 12.2109   4211.16
 12.2203   4175.73
 12.2297   4148.83
 12.239   4137.07
 12.2484   4113.57
 12.2577   4105.52
 12.2671   4088.06
 12.2765   4085.78
 12.2858   4091.08
 12.2952   4070.21
 12.3045   4073.87
 12.3139   4081.5
 12.3233   4089.45
 12.3326   4093.33
 12.342   4105.38
 12.3513   4136.56
 12.3607   4171.43
 12.3701   4212.66
 12.3794   4268.06
 12.3888   4299.55
 12.3981   4340.94
 12.4075   4380.27
 12.4169   4406.65
 12.4262   4441.27
 12.4356   4494.65
 12.4449   4567.59
 12.4543   4629.91
 12.4637   4686.89
 12.473   4716.55
 12.4824   4706.16
 12.4917   4656.26
 12.5011   4567.73
 12.5105   4468.13
 12.5198   4367.97
 12.5292   4273.63
 12.5385   4200.25
 12.5479   4150.84
 12.5573   4096.31
 12.5666   4065.67
 12.576   4032.53
 12.5853   4018.95
 12.5947   4009.98
 12.6041   4001.6
 12.6134   3984.71
 12.6228   3990.77
 12.6321   3997.87
 12.6415   4012
 12.6509   4029.29
 12.6602   4068.36
 12.6696   4108.09
 12.6789   4183.68
 12.6883   4275.06
 12.6977   4412.18