File: docs/GuiliangJun25_tutorial_output/integrals/MA2-00003_om.chi
MA2-00003.tif Azm= 0.00
2-Theta Angle (Degrees)
Intensity
       2500
 1.00702   7972.17
 1.01638   7921.2
 1.02574   7888.11
 1.0351   7789.03
 1.04446   7752.96
 1.05382   7734.54
 1.06318   7644.59
 1.07254   7625.03
 1.0819   7571.28
 1.09126   7555.68
 1.10062   7526.29
 1.10998   7472.57
 1.11934   7414.07
 1.1287   7418.16
 1.13806   7385.87
 1.14742   7340.68
 1.15678   7333.85
 1.16614   7294.68
 1.1755   7259.32
 1.18486   7266.64
 1.19422   7234.6
 1.20358   7245.88
 1.21294   7245.55
 1.2223   7220.26
 1.23166   7209.77
 1.24102   7174.14
 1.25038   7184.47
 1.25974   7130.26
 1.2691   7156.35
 1.27846   7178.3
 1.28782   7185.41
 1.29718   7189.06
 1.30654   7173.02
 1.3159   7160.84
 1.32526   7203.11
 1.33462   7207.72
 1.34398   7197.44
 1.35334   7213.23
 1.3627   7286.14
 1.37206   7266.34
 1.38142   7264.71
 1.39078   7288.01
 1.40014   7291.32
 1.4095   7347.54
 1.41886   7365.67
 1.42822   7425.51
 1.43758   7458.74
 1.44694   7536.05
 1.4563   7584.14
 1.46566   7632.24
 1.47502   7657.07
 1.48438   7694.88
 1.49374   7739.76
 1.5031   7770.07
 1.51246   7804.62
 1.52182   7801.48
 1.53118   7805.37
 1.54054   7815.88
 1.5499   7789.81
 1.55926   7772.03
 1.56862   7743.58
 1.57798   7752.92
 1.58734   7744.17
 1.5967   7708.44
 1.60606   7731.09
 1.61542   7734.98
 1.62478   7732.55
 1.63414   7700.55
 1.6435   7733.48
 1.65286   7726.49
 1.66222   7717.33
 1.67158   7750.66
 1.68094   7765.58
 1.6903   7704.12
 1.69966   7745.97
 1.70902   7718.23
 1.71838   7749.86
 1.72774   7761.7
 1.7371   7772.06
 1.74646   7795.18
 1.75582   7774.27
 1.76518   7825.31
 1.77454   7834.7
 1.7839   7871.69
 1.79326   7859.37
 1.80262   7898.98
 1.81198   7935.83
 1.82134   7957.27
 1.8307   8011.07
 1.84006   8048
 1.84942   8055.46
 1.85878   8114.01
 1.86814   8136.63
 1.8775   8154.16
 1.88686   8211.29
 1.89622   8268.15
 1.90558   8314.78
 1.91494   8364.25
 1.9243   8431.44
 1.93366   8456.66
 1.94302   8501.56
 1.95238   8556.86
 1.96174   8590.94
 1.9711   8644.44
 1.98046   8673.7
 1.98982   8733.5
 1.99918   8771.12
 2.00854   8798.01
 2.0179   8858.79
 2.02726   8923.91
 2.03662   8930.05
 2.04598   8982.11
 2.05534   9047.69
 2.0647   9068.12
 2.07406   9146.1
 2.08342   9198.82
 2.09278   9293.93
 2.10214   9344.69
 2.1115   9406.27
 2.12086   9458.63
 2.13022   9487.51
 2.13958   9548.03
 2.14894   9646.68
 2.1583   9747.01
 2.16766   9925.95
 2.17702   10129.9
 2.18638   10444.8
 2.19574   10966.4
 2.2051   11885
 2.21446   13658.2
 2.22382   16803.2
 2.23318   21629.3
 2.24254   26208
 2.2519   27421.4
 2.26126   24275.7
 2.27062   18926.6
 2.27998   14815.2
 2.28934   12560.4
 2.2987   11550.8
 2.30806   11112.2
 2.31742   10910.3
 2.32678   10883.3
 2.33614   10843.6
 2.3455   10876.4
 2.35486   10916
 2.36422   10947.2
 2.37358   10995.6
 2.38294   11046.2
 2.3923   11116.6
 2.40166   11182.6
 2.41102   11261
 2.42038   11318.1
 2.42974   11381.3
 2.4391   11461.3
 2.44846   11533
 2.45782   11605.1
 2.46718   11698.3
 2.47654   11751.3
 2.4859   11838.7
 2.49526   11898.6
 2.50462   12013
 2.51398   12072.6
 2.52334   12127.2
 2.5327   12201.9
 2.54206   12276.5
 2.55142   12347.2
 2.56078   12409.7
 2.57014   12475.8
 2.5795   12541.4
 2.58886   12617.6
 2.59822   12674.6
 2.60758   12721
 2.61694   12771.2
 2.6263   12818.6
 2.63566   12846.8
 2.64502   12873
 2.65438   12912.2
 2.66374   12962.9
 2.6731   12987.8
 2.68246   12990.7
 2.69182   13029.7
 2.70118   13053.7
 2.71054   13086.6
 2.7199   13097.8
 2.72926   13099.3
 2.73862   13072.9
 2.74798   13055.8
 2.75734   13044.8
 2.7667   13054
 2.77606   13036.1
 2.78542   12998.7
 2.79478   13005
 2.80414   12984.7
 2.8135   12947.6
 2.82286   12910.1
 2.83222   12892.9
 2.84158   12875.1
 2.85094   12833.3
 2.8603   12804.5
 2.86966   12770
 2.87902   12731.1
 2.88838   12681.3
 2.89774   12642.9
 2.9071   12610.4
 2.91646   12589.8
 2.92582   12545.5
 2.93518   12517.1
 2.94454   12472.6
 2.9539   12415.6
 2.96326   12357
 2.97262   12330.1
 2.98198   12275.9
 2.99134   12212.9
 3.0007   12162
 3.01006   12118.6
 3.01942   12039.6
 3.02878   12011.9
 3.03814   11940.3
 3.0475   11883.8
 3.05686   11807
 3.06622   11763.2
 3.07558   11713.6
 3.08494   11662.2
 3.0943   11626.3
 3.10366   11544.8
 3.11302   11508.6
 3.12238   11479.4
 3.13174   11447.8
 3.1411   11399.9
 3.15046   11376.7
 3.15982   11317.5
 3.16918   11291.1
 3.17854   11230.8
 3.1879   11227.6
 3.19726   11195
 3.20662   11167.6
 3.21598   11120.9
 3.22534   11095.1
 3.2347   11070.9
 3.24406   10998.8
 3.25342   10974
 3.26278   10988.3
 3.27214   10949.3
 3.2815   10920.2
 3.29086   10917.4
 3.30022   10895.8
 3.30958   10889.9
 3.31894   10867.3
 3.3283   10863.7
 3.33766   10850.9
 3.34702   10819
 3.35638   10799.2
 3.36574   10808.7
 3.3751   10806.2
 3.38446   10790.3
 3.39382   10785.6
 3.40318   10800.3
 3.41254   10812.5
 3.4219   10794.4
 3.43126   10784.3
 3.44062   10814.9
 3.44998   10833.7
 3.45934   10797.4
 3.4687   10802.3
 3.47806   10810.9
 3.48742   10807.3
 3.49678   10783.9
 3.50614   10782.6
 3.5155   10789.7
 3.52486   10774.6
 3.53422   10781.6
 3.54358   10820.8
 3.55294   10796.7
 3.5623   10736.3
 3.57166   10766.8
 3.58102   10799.5
 3.59038   10772.1
 3.59974   10735.3
 3.6091   10741.1
 3.61846   10790.3
 3.62782   10722.4
 3.63718   10677.9
 3.64654   10706.6
 3.6559   10751.3
 3.66526   10641.8
 3.67462   10600.9
 3.68398   10651.1
 3.69334   10603.3
 3.7027   10476.8
 3.71206   10473.2
 3.72142   10438.5
 3.73078   10320.4
 3.74014   10177.7
 3.7495   10155.3
 3.75886   10108.4
 3.76822   9976.4
 3.77758   9873.09
 3.78694   9880.16
 3.7963   9856.45
 3.80566   9646.61
 3.81502   9608.67
 3.82438   9692.56
 3.83374   9572.2
 3.8431   9416.65
 3.85246   9441.95
 3.86182   9437.88
 3.87118   9350.91
 3.88054   9203.36
 3.8899   9171.02
 3.89926   9095.52
 3.90862   9014.64
 3.91798   8970.52
 3.92734   8947.99
 3.9367   8890.07
 3.94606   8822.89
 3.95542   8826.8
 3.96478   8748.83
 3.97414   8670.42
 3.9835   8671.55
 3.99286   8572.74
 4.00222   8534.46
 4.01158   8538.97
 4.02094   8420.66
 4.0303   8444.02
 4.03966   8447.88
 4.04902   8345.06
 4.05838   8289.7
 4.06774   8311.82
 4.0771   8248.94
 4.08646   8198.7
 4.09582   8131.16
 4.10518   8165.22
 4.11454   8139.29
 4.1239   8024.43
 4.13326   8011.97
 4.14262   8037.63
 4.15198   8028.86
 4.16134   7913.63
 4.1707   7885.21
 4.18006   7928.73
 4.18942   7877.81
 4.19878   7801.57
 4.20814   7829.82
 4.2175   7916.54
 4.22686   7826.72
 4.23622   7719.82
 4.24558   7806.65
 4.25494   7788.17
 4.2643   7792.24
 4.27366   7787.88
 4.28302   7822.75
 4.29238   7782.39
 4.30174   7697.07
 4.3111   7688.64
 4.32046   7737.76
 4.32982   7731.71
 4.33918   7660.97
 4.34854   7690.4
 4.3579   7693.86
 4.36726   7644.42
 4.37662   7619.97
 4.38598   7613.27
 4.39534   7668.7
 4.4047   7669.36
 4.41406   7632.71
 4.42342   7662.54
 4.43278   7768.28
 4.44214   7785.43
 4.4515   7875.05
 4.46086   8174.14
 4.47022   8566.98
 4.47958   9125.81
 4.48894   9839.51
 4.4983   10320
 4.50766   10260.9
 4.51702   9572.08
 4.52638   8707.98
 4.53574   7987.56
 4.5451   7519.37
 4.55446   7251.24
 4.56382   7133.5
 4.57318   7035.8
 4.58254   6974.64
 4.5919   6902.12
 4.60126   6868.17
 4.61062   6848.9
 4.61998   6799.72
 4.62934   6771.15
 4.6387   6756.91
 4.64806   6746.64
 4.65742   6706.42
 4.66678   6737.31
 4.67614   6787.79
 4.6855   6922.92
 4.69486   7241.19
 4.70422   7867.29
 4.71358   8824.64
 4.72294   9747.5
 4.7323   10069.9
 4.74166   9646.98
 4.75102   8813.41
 4.76038   7962.29
 4.76974   7347.87
 4.7791   6965.66
 4.78846   6750.19
 4.79782   6592.22
 4.80718   6531.87
 4.81654   6480.71
 4.8259   6476.52
 4.83526   6489.84
 4.84462   6564.69
 4.85398   6748.31
 4.86334   7153.55
 4.8727   7936.77
 4.88206   9340.09
 4.89142   11115.9
 4.90078   12500.4
 4.91014   12597.2
 4.9195   11410
 4.92886   9753.69
 4.93822   8338.97
 4.94758   7408.2
 4.95694   6855.27
 4.9663   6554.66
 4.97566   6393.44
 4.98502   6293.12
 4.99438   6226.15
 5.00374   6182.69
 5.0131   6154.82
 5.02246   6149.06
 5.03182   6115.62
 5.04118   6109.63
 5.05054   6124.33
 5.0599   6169.79
 5.06926   6246.43
 5.07862   6394.13
 5.08798   6648.21
 5.09734   6900.33
 5.1067   7691.26
 5.11606   7600.52
 5.12542   8458.47
 5.13478   10996
 5.14414   12979.8
 5.1535   11965.7
 5.16286   9751.58
 5.17222   7689.07
 5.18158   6624.1
 5.19094   6625.75
 5.2003   6467.48
 5.20966   6254.33
 5.21902   6163.53
 5.22838   6043.66
 5.23774   6000.52
 5.2471   5949.8
 5.25646   5903.47
 5.26582   5858.8
 5.27518   5851.41
 5.28454   5821.33
 5.2939   5820.9
 5.30326   5796.04
 5.31262   5798.04
 5.32198   5790.49
 5.33134   5770.56
 5.3407   5768.96
 5.35006   5764.84
 5.35942   5764.44
 5.36878   5761.21
 5.37814   5762.01
 5.3875   5750.99
 5.39686   5777.78
 5.40622   5792.82
 5.41558   5805.47
 5.42494   5819.62
 5.4343   5869.33
 5.44366   5899.37
 5.45302   5983.97
 5.46238   6078.23
 5.47174   6237.06
 5.4811   6527.7
 5.49046   6921.79
 5.49982   7655.45
 5.50918   9095.73
 5.51854   11774.6
 5.5279   16246.5
 5.53726   22223.5
 5.54662   27433.7
 5.55598   28749.6
 5.56534   25310.1
 5.5747   19594.8
 5.58406   14343.6
 5.59342   10780.6
 5.60278   8641.66
 5.61214   7486.93
 5.6215   6815.15
 5.63086   6417.68
 5.64022   6194.54
 5.64958   6059.11
 5.65894   5950.05
 5.6683   5875.75
 5.67766   5826.9
 5.68702   5797.72
 5.69638   5758.35
 5.70574   5735.3
 5.7151   5720.84
 5.72446   5733.08
 5.73382   5731.79
 5.74318   5723.74
 5.75254   5763.43
 5.7619   5772.73
 5.77126   5756.18
 5.78062   5743.25
 5.78998   5716.82
 5.79934   5723.18
 5.8087   5703.61
 5.81806   5688.21
 5.82742   5694
 5.83678   5691.01
 5.84614   5663.21
 5.8555   5696.63
 5.86486   5721.05
 5.87422   5742.05
 5.88358   5791.74
 5.89294   5844.06
 5.9023   5943.61
 5.91166   6248.33
 5.92102   6566.18
 5.93038   6806.49
 5.93974   7560.41
 5.9491   7489.21
 5.95846   6914.18
 5.96782   6749.95
 5.97718   6579
 5.98654   6512.19
 5.9959   6464.07
 6.00526   6306
 6.01462   6145.24
 6.02398   6002.63
 6.03334   5869.92
 6.0427   5797.04
 6.05206   5797.59
 6.06142   5779.68
 6.07078   5740.08
 6.08014   5754.73
 6.0895   5749.86
 6.09886   5762.59
 6.10822   5728.27
 6.11758   5745.35
 6.12694   5745.54
 6.1363   5744.06
 6.14566   5732.41
 6.15502   5753.37
 6.16438   5769.18
 6.17374   5768.6
 6.1831   5754.8
 6.19246   5787.46
 6.20182   5788.1
 6.21118   5797.26
 6.22054   5784.71
 6.2299   5819.36
 6.23926   5834.54
 6.24862   5819.71
 6.25798   5824.69
 6.26734   5836.24
 6.2767   5867.36
 6.28606   5845.77
 6.29542   5855.39
 6.30478   5884.32
 6.31414   5884.79
 6.3235   5878.87
 6.33286   5901.98
 6.34222   5908.56
 6.35158   5909.16
 6.36094   5903.37
 6.3703   5895.33
 6.37966   5904.29
 6.38902   5921.47
 6.39838   5906.95
 6.40774   5952.2
 6.4171   5976.63
 6.42646   5955.96
 6.43582   5963.63
 6.44518   6005.2
 6.45454   5979.61
 6.4639   5977.63
 6.47326   5969.04
 6.48262   5981.34
 6.49198   6002.96
 6.50134   5996.63
 6.5107   6010.07
 6.52006   6039.24
 6.52942   6020.69
 6.53878   6041.12
 6.54814   6080.31
 6.5575   6110.22
 6.56686   6113.36
 6.57622   6117.07
 6.58558   6158.13
 6.59494   6188.11
 6.6043   6194.65
 6.61366   6193
 6.62302   6226.66
 6.63238   6232.94
 6.64174   6228.05
 6.6511   6231.02
 6.66046   6297.45
 6.66982   6304.74
 6.67918   6319.62
 6.68854   6347.94
 6.6979   6380.8
 6.70726   6431.92
 6.71662   6443.46
 6.72598   6478.51
 6.73534   6569.4
 6.7447   6582.75
 6.75406   6594.74
 6.76342   6607.9
 6.77278   6666.23
 6.78214   6618.19
 6.7915   6616
 6.80086   6587.82
 6.81022   6591.78
 6.81958   6620.51
 6.82894   6607.98
 6.8383   6607.32
 6.84766   6683.68
 6.85702   6626.43
 6.86638   6643.08
 6.87574   6671.9
 6.8851   6673.7
 6.89446   6688.26
 6.90382   6745.33
 6.91318   6766.64
 6.92254   6820.78
 6.9319   6835.73
 6.94126   6859
 6.95062   6940.4
 6.95998   7031.84
 6.96934   7081.11
 6.9787   7253.85
 6.98806   7520.95
 6.99742   7883.68
 7.00678   8428.28
 7.01614   9042.51
 7.0255   9551.45
 7.03486   9653.93
 7.04422   9311.95
 7.05358   8713.58
 7.06294   8194.47
 7.0723   7732.47
 7.08166   7355.54
 7.09102   7065.9
 7.10038   6928.97
 7.10974   6802.09
 7.1191   6731.28
 7.12846   6702.03
 7.13782   6664.64
 7.14718   6644.79
 7.15654   6617.15
 7.1659   6591.17
 7.17526   6596.86
 7.18462   6568.38
 7.19398   6551.58
 7.20334   6527.58
 7.2127   6548.42
 7.22206   6516.86
 7.23142   6514.66
 7.24078   6517.06
 7.25014   6552.44
 7.2595   6545.43
 7.26886   6555.21
 7.27822   6546.22
 7.28758   6534.42
 7.29694   6509.06
 7.3063   6509.83
 7.31566   6511.44
 7.32502   6529.21
 7.33438   6531.55
 7.34374   6540.11
 7.3531   6558.42
 7.36246   6556.44
 7.37182   6536.21
 7.38118   6529.12
 7.39054   6506.43
 7.3999   6486.55
 7.40926   6465.93
 7.41862   6438.43
 7.42798   6428.61
 7.43734   6429.18
 7.4467   6429.49
 7.45606   6434.82
 7.46542   6436.34
 7.47478   6454.54
 7.48414   6465.12
 7.4935   6462.65
 7.50286   6502.72
 7.51222   6530.87
 7.52158   6595.28
 7.53094   6673.4
 7.5403   6801.72
 7.54966   7008.89
 7.55902   7368.88
 7.56838   7923.37
 7.57774   8762.78
 7.5871   9861.34
 7.59646   11043.4
 7.60582   11811
 7.61518   11814.8
 7.62454   11008.1
 7.6339   9758.32
 7.64326   8560.67
 7.65262   7732.53
 7.66198   7157.97
 7.67134   6724.6
 7.6807   6512.81
 7.69006   6367.77
 7.69942   6246.12
 7.70878   6193.01
 7.71814   6127.69
 7.7275   6077.92
 7.73686   6061.18
 7.74622   6012.31
 7.75558   5958.75
 7.76494   5941.98
 7.7743   5926.37
 7.78366   5904.79
 7.79302   5860.27
 7.80238   5837.99
 7.81174   5847.37
 7.8211   5816.77
 7.83046   5779.01
 7.83982   5769.98
 7.84918   5751.14
 7.85854   5724.14
 7.8679   5699.92
 7.87726   5713.7
 7.88662   5700.77
 7.89598   5668.4
 7.90534   5654.32
 7.9147   5647.85
 7.92406   5649.85
 7.93342   5653.04
 7.94278   5608.77
 7.95214   5627.83
 7.9615   5626.75
 7.97086   5607.42
 7.98022   5598.58
 7.98958   5625.08
 7.99894   5654.91
 8.0083   5674.57
 8.01766   5735.12
 8.02702   5872.97
 8.03638   6115.64
 8.04574   6568.85
 8.0551   7243.97
 8.06446   8228.08
 8.07382   9360.45
 8.08318   10276.7
 8.09254   10636.8
 8.1019   10428.8
 8.11126   9692.7
 8.12062   8733.9
 8.12998   7909.98
 8.13934   7214.98
 8.1487   6610.41
 8.15806   6246.57
 8.16742   5970.93
 8.17678   5786.27
 8.18614   5659.77
 8.1955   5544.5
 8.20486   5482.36
 8.21422   5456.36
 8.22358   5433.49
 8.23294   5400.27
 8.2423   5380.2
 8.25166   5344.08
 8.26102   5326.14
 8.27038   5311.12
 8.27974   5307.48
 8.2891   5309.88
 8.29846   5322.17
 8.30782   5313.95
 8.31718   5329.53
 8.32654   5375.37
 8.3359   5431.33
 8.34526   5531.44
 8.35462   5745.77
 8.36398   6015.75
 8.37334   6493.52
 8.3827   7246.89
 8.39206   7667.5
 8.40142   8369.85
 8.41078   8495.46
 8.42014   7964.12
 8.4295   7083.68
 8.43886   6623.82
 8.44822   6028.68
 8.45758   5738.27
 8.46694   5549.78
 8.4763   5422.21
 8.48566   5339.64
 8.49502   5284.91
 8.50438   5252.73
 8.51374   5216.07
 8.5231   5195.42
 8.53246   5162.4
 8.54182   5131.46
 8.55118   5132.73
 8.56054   5115.87
 8.5699   5085.4
 8.57926   5096.3
 8.58862   5075.14
 8.59798   5076.5
 8.60734   5068.69
 8.6167   5062.64
 8.62606   5055.29
 8.63542   5057.79
 8.64478   5056.7
 8.65414   5042.06
 8.6635   5026.79
 8.67286   5026.4
 8.68222   5007.62
 8.69158   4999.13
 8.70094   5011.76
 8.7103   4991.96
 8.71966   4995.78
 8.72902   4999.29
 8.73838   5006.83
 8.74774   5007.18
 8.7571   5032.44
 8.76646   5079.08
 8.77582   5115.45
 8.78518   5192.07
 8.79454   5307.34
 8.8039   5470.91
 8.81326   5686.56
 8.82262   5951.27
 8.83198   6226.63
 8.84134   6418.39
 8.8507   6438.41
 8.86006   6273.78
 8.86942   5980.34
 8.87878   5673.76
 8.88814   5415.78
 8.8975   5249.94
 8.90686   5139.04
 8.91622   5081.88
 8.92558   5053.44
 8.93494   5040.7
 8.9443   5059.56
 8.95366   5076.98
 8.96302   5130.99
 8.97238   5195.07
 8.98174   5266.75
 8.9911   5372.71
 9.00046   5456.98
 9.00982   5520.07
 9.01918   5537.32
 9.02854   5469.58
 9.0379   5345.04
 9.04726   5216.01
 9.05662   5084.77
 9.06598   5001.97
 9.07534   4946.25
 9.0847   4905.91
 9.09406   4882.5
 9.10342   4879.17
 9.11278   4872.09
 9.12214   4873.13
 9.1315   4872.26
 9.14086   4886.61
 9.15022   4881.42
 9.15958   4898.05
 9.16894   4921.17
 9.1783   4941.89
 9.18766   4962.44
 9.19702   5023.26
 9.20638   5121.91
 9.21574   5256.56
 9.2251   5475.19
 9.23446   5807.56
 9.24382   6221.3
 9.25318   6613.47
 9.26254   6872.41
 9.2719   6880.56
 9.28126   6645.23
 9.29062   6291.13
 9.29998   5911.35
 9.30934   5606.36
 9.3187   5397.18
 9.32806   5275.77
 9.33742   5217.01
 9.34678   5207.08
 9.35614   5250.55
 9.3655   5300.18
 9.37486   5325.59
 9.38422   5325.51
 9.39358   5327.85
 9.40294   5306.68
 9.4123   5323.66
 9.42166   5373.22
 9.43102   5486.04
 9.44038   5664.77
 9.44974   5883.31
 9.4591   6115.3
 9.46846   6309.31
 9.47782   6411.76
 9.48718   6427.48
 9.49654   6324.43
 9.5059   6127.73
 9.51526   5885.7
 9.52462   5635.53
 9.53398   5406.33
 9.54334   5260.45
 9.5527   5147.58
 9.56206   5069.51
 9.57142   5023.78
 9.58078   4981.18
 9.59014   4977.17
 9.5995   4966.26
 9.60886   4961.46
 9.61822   4943.79
 9.62758   4946.31
 9.63694   4946.17
 9.6463   4936.84
 9.65566   4942.48
 9.66502   4950.15
 9.67438   4946.64
 9.68374   4955.03
 9.6931   4968.23
 9.70246   4979.12
 9.71182   4977.66
 9.72118   4999.86
 9.73054   5034.42
 9.7399   5069.58
 9.74926   5148.47
 9.75862   5243.35
 9.76798   5399.22
 9.77734   5649.64
 9.7867   6006.03
 9.79606   6432.08
 9.80542   6872.8
 9.81478   7247.16
 9.82414   7504.23
 9.8335   7914.31
 9.84286   8740.44
 9.85222   9710.18
 9.86158   11445.3
 9.87094   10823.9
 9.8803   8723.47
 9.88966   6960.23
 9.89902   6118.51
 9.90838   5558.63
 9.91774   5341.12
 9.9271   5235.92
 9.93646   5177.6
 9.94582   5127.68
 9.95518   5113.09
 9.96454   5113.02
 9.9739   5091.14
 9.98326   5095.22
 9.99262   5098.32
 10.002   5096.87
 10.0113   5100.96
 10.0207   5114.32
 10.0301   5100.46
 10.0394   5114.19
 10.0488   5146.33
 10.0581   5174.74
 10.0675   5204.14
 10.0769   5223.31
 10.0862   5206.32
 10.0956   5192.99
 10.1049   5163.1
 10.1143   5133.46
 10.1237   5116.62
 10.133   5092.23
 10.1424   5089.71
 10.1517   5079.81
 10.1611   5068.83
 10.1705   5076.56
 10.1798   5066.19
 10.1892   5053.95
 10.1985   5071.62
 10.2079   5090.78
 10.2173   5090.74
 10.2266   5077.92
 10.236   5101.43
 10.2453   5112.76
 10.2547   5171.31
 10.2641   5293.61
 10.2734   5457.5
 10.2828   5382.35
 10.2921   5664.15
 10.3015   5813.64
 10.3109   5789.22
 10.3202   5608.63
 10.3296   5801.2
 10.3389   5359.93
 10.3483   5218.53
 10.3577   5130.18
 10.367   5089.95
 10.3764   5074.24
 10.3857   5074.08
 10.3951   5057.75
 10.4045   5043.86
 10.4138   5046.28
 10.4232   5055.68
 10.4325   5027.49
 10.4419   5039.56
 10.4513   5028.98
 10.4606   5035.67
 10.47   5042.23
 10.4793   5037.22
 10.4887   5057.39
 10.4981   5058.87
 10.5074   5074.38
 10.5168   5072.23
 10.5261   5100.68
 10.5355   5134.5
 10.5449   5133.81
 10.5542   5140.17
 10.5636   5111.08
 10.5729   5087.63
 10.5823   5049.16
 10.5917   5020.34
 10.601   4981.67
 10.6104   4981.4
 10.6197   4981.18
 10.6291   4981.37
 10.6385   4969.82
 10.6478   4959.79
 10.6572   4967.83
 10.6665   4982.86
 10.6759   5003.31
 10.6853   5039.1
 10.6946   5095.65
 10.704   5181.44
 10.7133   5270.35
 10.7227   5323.14
 10.7321   5340.05
 10.7414   5322.74
 10.7508   5267.25
 10.7601   5167.28
 10.7695   5090.9
 10.7789   5032.96
 10.7882   4989.06
 10.7976   4938.21
 10.8069   4911.09
 10.8163   4899.37
 10.8257   4888.39
 10.835   4878.96
 10.8444   4877.64
 10.8537   4851.15
 10.8631   4852.5
 10.8725   4836.63
 10.8818   4817.49
 10.8912   4801.54
 10.9005   4790.43
 10.9099   4782.4
 10.9193   4772.81
 10.9286   4759.38
 10.938   4759.73
 10.9473   4752.79
 10.9567   4746.79
 10.9661   4734.67
 10.9754   4734.47
 10.9848   4738.34
 10.9941   4732.7
 11.0035   4733.29
 11.0129   4741.87
 11.0222   4755.28
 11.0316   4768.46
 11.0409   4776.08
 11.0503   4807.92
 11.0597   4865.91
 11.069   4927.08
 11.0784   5045.03
 11.0877   5200.97
 11.0971   5409.07
 11.1065   5579.15
 11.1158   5713.12
 11.1252   5721.96
 11.1345   5617.36
 11.1439   5436.57
 11.1533   5246.13
 11.1626   5072.38
 11.172   4944.16
 11.1813   4855.47
 11.1907   4785.11
 11.2001   4733.21
 11.2094   4719.39
 11.2188   4711.76
 11.2281   4713.92
 11.2375   4717.5
 11.2469   4720.99
 11.2562   4722.79
 11.2656   4715.32
 11.2749   4691.83
 11.2843   4686.53
 11.2937   4671.42
 11.303   4652.23
 11.3124   4620.38
 11.3217   4584.18
 11.3311   4566.53
 11.3405   4544.21
 11.3498   4528.44
 11.3592   4527.76
 11.3685   4526.94
 11.3779   4532.02
 11.3873   4520.96
 11.3966   4520.15
 11.406   4532.99
 11.4153   4530.47
 11.4247   4541.1
 11.4341   4553.89
 11.4434   4580.94
 11.4528   4620.57
 11.4621   4638.47
 11.4715   4694.96
 11.4809   4760.4
 11.4902   4846.24
 11.4996   4923.99
 11.5089   4977.26
 11.5183   4999.29
 11.5277   4975.45
 11.537   4904.97
 11.5464   4795.56
 11.5557   4698.5
 11.5651   4616.89
 11.5745   4558.17
 11.5838   4496.28
 11.5932   4464.57
 11.6025   4455.21
 11.6119   4439.22
 11.6213   4438.09
 11.6306   4425.43
 11.64   4406.08
 11.6493   4402.7
 11.6587   4384.28
 11.6681   4366.56
 11.6774   4364.52
 11.6868   4347.74
 11.6961   4352.4
 11.7055   4347.98
 11.7149   4335.26
 11.7242   4336.5
 11.7336   4321.77
 11.7429   4318.94
 11.7523   4311.05
 11.7617   4320.47
 11.771   4312.56
 11.7804   4303.72
 11.7897   4299.93
 11.7991   4293.95
 11.8085   4297.77
 11.8178   4293.42
 11.8272   4287.74
 11.8365   4288.94
 11.8459   4293.38
 11.8553   4304.56
 11.8646   4324.27
 11.874   4364.81
 11.8833   4379.89
 11.8927   4430.98
 11.9021   4485.66
 11.9114   4489.76
 11.9208   4433.73
 11.9301   4398.56
 11.9395   4408.24
 11.9489   4383.67
 11.9582   4404.28
 11.9676   4445.7
 11.9769   4516.59
 11.9863   4569.45
 11.9957   4624.26
 12.005   4639.43
 12.0144   4620.6
 12.0237   4568.69
 12.0331   4508.15
 12.0425   4478.04
 12.0518   4461.45
 12.0612   4468.87
 12.0705   4513.49
 12.0799   4601.11
 12.0893   4723.14
 12.0986   4881.13
 12.108   5054.77
 12.1173   5198.42
 12.1267   5260.19
 12.1361   5201.79
 12.1454   5067.2
 12.1548   4874.24
 12.1641   4689.6
 12.1735   4520.89
 12.1829   4407.04
 12.1922   4322.72
 12.2016   4259.51
 12.2109   4209.12
 12.2203   4175.78
 12.2297   4146.41
 12.239   4136.72
 12.2484   4112.58
 12.2577   4103.62
 12.2671   4087.23
 12.2765   4085.04
 12.2858   4090.48
 12.2952   4070.23
 12.3045   4072.42
 12.3139   4080.68
 12.3233   4087.33
 12.3326   4091.72
 12.342   4104.72
 12.3513   4135.81
 12.3607   4170.29
 12.3701   4209.64
 12.3794   4268.44
 12.3888   4297.65
 12.3981   4340.32
 12.4075   4376.59
 12.4169   4405.3
 12.4262   4441.31
 12.4356   4493.96
 12.4449   4564.28
 12.4543   4628.42
 12.4637   4686.82
 12.473   4715.55
 12.4824   4705.17
 12.4917   4655.51
 12.5011   4565.21
 12.5105   4468.2
 12.5198   4368.88
 12.5292   4270.8
 12.5385   4200.98
 12.5479   4150.59
 12.5573   4095.31
 12.5666   4065.67
 12.576   4031.22
 12.5853   4019.04
 12.5947   4009.06
 12.6041   4000.97
 12.6134   3984.12
 12.6228   3991.23
 12.6321   3998.24
 12.6415   4011.06
 12.6509   4029.95
 12.6602   4068.11
 12.6696   4106.37
 12.6789   4184.27
 12.6883   4274.75
 12.6977   4407.85