File: docs/GuiliangJun25_tutorial_output/integrals/MA2-00001_base.chi
MA2-00001.tif Azm= 0.00
2-Theta Angle (Degrees)
Intensity
       2500
 1.00702   7872.49
 1.01638   7820.48
 1.02574   7751.65
 1.0351   7694.79
 1.04446   7627.58
 1.05382   7614.05
 1.06318   7544.85
 1.07254   7488.65
 1.0819   7448.85
 1.09126   7442.38
 1.10062   7415.67
 1.10998   7342.54
 1.11934   7364.91
 1.1287   7283.67
 1.13806   7239.28
 1.14742   7218.72
 1.15678   7219.53
 1.16614   7179.13
 1.1755   7191.05
 1.18486   7154.43
 1.19422   7152.75
 1.20358   7149.6
 1.21294   7121.49
 1.2223   7097.95
 1.23166   7091.96
 1.24102   7094.55
 1.25038   7049.7
 1.25974   7125.43
 1.2691   7086.34
 1.27846   7082.75
 1.28782   7062.68
 1.29718   7105.53
 1.30654   7127.57
 1.3159   7082.49
 1.32526   7110.17
 1.33462   7138.3
 1.34398   7103.84
 1.35334   7102.93
 1.3627   7157.77
 1.37206   7138.38
 1.38142   7184.59
 1.39078   7190.75
 1.40014   7220.65
 1.4095   7270.31
 1.41886   7270.52
 1.42822   7351.53
 1.43758   7353.43
 1.44694   7403.37
 1.4563   7459.38
 1.46566   7497.49
 1.47502   7566.38
 1.48438   7602.62
 1.49374   7651.86
 1.5031   7665.33
 1.51246   7691.24
 1.52182   7717.55
 1.53118   7714.21
 1.54054   7718.27
 1.5499   7703.24
 1.55926   7668.51
 1.56862   7636.18
 1.57798   7653.78
 1.58734   7649.16
 1.5967   7666.52
 1.60606   7637.53
 1.61542   7628.68
 1.62478   7614.45
 1.63414   7641.54
 1.6435   7611.94
 1.65286   7622.25
 1.66222   7627.96
 1.67158   7623.99
 1.68094   7641.83
 1.6903   7639.9
 1.69966   7644.28
 1.70902   7673.4
 1.71838   7655.44
 1.72774   7656.64
 1.7371   7676.77
 1.74646   7693.83
 1.75582   7686.12
 1.76518   7702.28
 1.77454   7731.46
 1.7839   7760.01
 1.79326   7770.68
 1.80262   7820.82
 1.81198   7843.45
 1.82134   7869.96
 1.8307   7910.54
 1.84006   7918.15
 1.84942   7964.14
 1.85878   8014.99
 1.86814   8033.37
 1.8775   8090.2
 1.88686   8159.13
 1.89622   8184.33
 1.90558   8235.94
 1.91494   8271.92
 1.9243   8326.25
 1.93366   8376.44
 1.94302   8409.25
 1.95238   8458.75
 1.96174   8560.73
 1.9711   8727.96
 1.98046   8685.07
 1.98982   8648.9
 1.99918   8673.03
 2.00854   8721.12
 2.0179   8752.62
 2.02726   8811.89
 2.03662   8854.99
 2.04598   8863.69
 2.05534   8952.72
 2.0647   8987.42
 2.07406   9034.48
 2.08342   9076.4
 2.09278   9141.27
 2.10214   9247.07
 2.1115   9294.61
 2.12086   9319.42
 2.13022   9394.04
 2.13958   9450.6
 2.14894   9523.28
 2.1583   9614.96
 2.16766   9714.02
 2.17702   9868.04
 2.18638   10069.9
 2.19574   10341.1
 2.2051   10881.6
 2.21446   11876.9
 2.22382   14047.3
 2.23318   18159.4
 2.24254   23760.3
 2.2519   27472.4
 2.26126   26176.3
 2.27062   20917.2
 2.27998   15990.1
 2.28934   13065.2
 2.2987   11695.9
 2.30806   11112.3
 2.31742   10890.8
 2.32678   10752.5
 2.33614   10746.1
 2.3455   10778.7
 2.35486   10804.7
 2.36422   10815.5
 2.37358   10881.5
 2.38294   10927
 2.3923   11000.1
 2.40166   11100
 2.41102   11118
 2.42038   11188
 2.42974   11255.7
 2.4391   11342.8
 2.44846   11406.9
 2.45782   11471.7
 2.46718   11544.8
 2.47654   11627.4
 2.4859   11727.3
 2.49526   11797
 2.50462   11861.8
 2.51398   11929.1
 2.52334   12018.2
 2.5327   12091.1
 2.54206   12197
 2.55142   12214.8
 2.56078   12297.7
 2.57014   12348.9
 2.5795   12415.1
 2.58886   12498.9
 2.59822   12539.3
 2.60758   12580.5
 2.61694   12635.5
 2.6263   12670.6
 2.63566   12721.9
 2.64502   12765.6
 2.65438   12817.1
 2.66374   12840.7
 2.6731   12888.9
 2.68246   12904.1
 2.69182   12924.2
 2.70118   12941.7
 2.71054   12990.6
 2.7199   12969.4
 2.72926   12982.2
 2.73862   12969
 2.74798   12961.3
 2.75734   12954.3
 2.7667   12935.6
 2.77606   12932.1
 2.78542   12884.2
 2.79478   12856.7
 2.80414   12821.5
 2.8135   12815.5
 2.82286   12806.8
 2.83222   12764.5
 2.84158   12737.8
 2.85094   12700.8
 2.8603   12668.7
 2.86966   12638.9
 2.87902   12614.7
 2.88838   12573
 2.89774   12516.4
 2.9071   12479.3
 2.91646   12456.1
 2.92582   12401.2
 2.93518   12361.6
 2.94454   12348.1
 2.9539   12291.4
 2.96326   12260.3
 2.97262   12187.3
 2.98198   12145.1
 2.99134   12059.6
 3.0007   12033.6
 3.01006   11975.4
 3.01942   11927.2
 3.02878   11909.7
 3.03814   11841.7
 3.0475   11762.6
 3.05686   11695
 3.06622   11621.3
 3.07558   11586.7
 3.08494   11526
 3.0943   11492.3
 3.10366   11420.3
 3.11302   11385.3
 3.12238   11344.2
 3.13174   11292.1
 3.1411   11281.8
 3.15046   11240.7
 3.15982   11197
 3.16918   11153.3
 3.17854   11104.7
 3.1879   11096.7
 3.19726   11083.5
 3.20662   11013.7
 3.21598   10979.8
 3.22534   10955.8
 3.2347   10941.7
 3.24406   10909.8
 3.25342   10861.8
 3.26278   10863.9
 3.27214   10824.9
 3.2815   10788.7
 3.29086   10772.7
 3.30022   10774.3
 3.30958   10759.6
 3.31894   10741
 3.3283   10746.2
 3.33766   10729.4
 3.34702   10704.1
 3.35638   10674.6
 3.36574   10708.7
 3.3751   10707.1
 3.38446   10688.9
 3.39382   10700.7
 3.40318   10704
 3.41254   10714.9
 3.4219   10721.3
 3.43126   10737.8
 3.44062   10732.2
 3.44998   10752.3
 3.45934   10732.8
 3.4687   10757.4
 3.47806   10770.6
 3.48742   10757.2
 3.49678   10739.7
 3.50614   10764.4
 3.5155   10768.5
 3.52486   10738.4
 3.53422   10733.7
 3.54358   10768.6
 3.55294   10769.1
 3.5623   10741.6
 3.57166   10755.7
 3.58102   10801.8
 3.59038   10764.9
 3.59974   10766.1
 3.6091   10812.7
 3.61846   10861.5
 3.62782   10806.3
 3.63718   10804.3
 3.64654   10904.8
 3.6559   10951.7
 3.66526   10920.2
 3.67462   10931.4
 3.68398   11111.9
 3.69334   11131.4
 3.7027   11147
 3.71206   11173.2
 3.72142   11351.6
 3.73078   11239.2
 3.74014   11279.5
 3.7495   11348.9
 3.75886   11370.2
 3.76822   11515.6
 3.77758   11485.4
 3.78694   11635.3
 3.7963   11878.8
 3.80566   11797.9
 3.81502   11833.5
 3.82438   12343.1
 3.83374   12396.7
 3.8431   12609.1
 3.85246   13137.7
 3.86182   13561.6
 3.87118   13862
 3.88054   14434.1
 3.8899   15052.1
 3.89926   16103.5
 3.90862   17105.8
 3.91798   19903
 3.92734   24898.7
 3.9367   38951.1
 3.94606   68144
 3.95542   73518.7
 3.96478   86354.3
 3.97414   106783
 3.9835   91535.2
 3.99286   65981.3
 4.00222   37321.8
 4.01158   29865.9
 4.02094   20792.1
 4.0303   17257.9
 4.03966   15369.6
 4.04902   13697.1
 4.05838   12922.4
 4.06774   12539.9
 4.0771   12107.7
 4.08646   11993
 4.09582   11570
 4.10518   11339.3
 4.11454   11277.4
 4.1239   10832.8
 4.13326   10559.6
 4.14262   10579.9
 4.15198   10306.5
 4.16134   10057
 4.1707   9937.9
 4.18006   9841.06
 4.18942   9653.17
 4.19878   9437.43
 4.20814   9321.94
 4.2175   9287.38
 4.22686   9014.68
 4.23622   8861.34
 4.24558   8835.07
 4.25494   8705.22
 4.2643   8591.45
 4.27366   8459.23
 4.28302   8367.08
 4.29238   8278.49
 4.30174   8180.2
 4.3111   8100.66
 4.32046   8138.36
 4.32982   8046.08
 4.33918   7893.59
 4.34854   7892.09
 4.3579   7859.36
 4.36726   7785.41
 4.37662   7720.13
 4.38598   7657.58
 4.39534   7643.86
 4.4047   7627.18
 4.41406   7542.42
 4.42342   7530.49
 4.43278   7561.61
 4.44214   7523
 4.4515   7522.11
 4.46086   7644.18
 4.47022   7870.66
 4.47958   8305.8
 4.48894   9119.77
 4.4983   10144.8
 4.50766   10730.7
 4.51702   10362.7
 4.52638   9404.79
 4.53574   8393.33
 4.5451   7678.16
 4.55446   7290.58
 4.56382   7084.36
 4.57318   6984.63
 4.58254   6898.99
 4.5919   6827.28
 4.60126   6770.44
 4.61062   6774.89
 4.61998   6711.1
 4.62934   6684.81
 4.6387   6690.95
 4.64806   6675.11
 4.65742   6633.71
 4.66678   6693.2
 4.67614   6774.62
 4.6855   7013.13
 4.69486   7542.03
 4.70422   8495.29
 4.71358   9643.1
 4.72294   10284.1
 4.7323   9865.86
 4.74166   8754.1
 4.75102   7729.22
 4.76038   7050.1
 4.76974   6716.25
 4.7791   6540.02
 4.78846   6452.04
 4.79782   6405.47
 4.80718   6383.61
 4.81654   6355.98
 4.8259   6402.73
 4.83526   6444.9
 4.84462   6595.09
 4.85398   6886.01
 4.86334   7522.4
 4.8727   8770.51
 4.88206   10736.6
 4.89142   12719.8
 4.90078   13438.4
 4.91014   12322.9
 4.9195   10219.1
 4.92886   8392.34
 4.93822   7278.5
 4.94758   6716.53
 4.95694   6426.27
 4.9663   6302.27
 4.97566   6192.43
 4.98502   6159.38
 4.99438   6119.22
 5.00374   6096.37
 5.0131   6058.52
 5.02246   6061.25
 5.03182   6045.65
 5.04118   6038.63
 5.05054   6059.92
 5.0599   6098.68
 5.06926   6184.82
 5.07862   6364.15
 5.08798   6641.11
 5.09734   7312.53
 5.1067   8922.37
 5.11606   11945.2
 5.12542   19533.4
 5.13478   37387.3
 5.14414   50168.8
 5.1535   41284
 5.16286   26072.8
 5.17222   14743.3
 5.18158   9275.64
 5.19094   7149.85
 5.2003   6560.01
 5.20966   6294.47
 5.21902   6143.51
 5.22838   6010.45
 5.23774   5966.92
 5.2471   5878.38
 5.25646   5849.57
 5.26582   5835.91
 5.27518   5805.35
 5.28454   5782.75
 5.2939   5783.39
 5.30326   5787.59
 5.31262   5760.89
 5.32198   5734.43
 5.33134   5730.02
 5.3407   5744.44
 5.35006   5712.63
 5.35942   5697.62
 5.36878   5719.41
 5.37814   5739.06
 5.3875   5715.39
 5.39686   5723.97
 5.40622   5777.97
 5.41558   5783.3
 5.42494   5784.88
 5.4343   5836.21
 5.44366   5904.46
 5.45302   5999.8
 5.46238   6084.28
 5.47174   6278.28
 5.4811   6587.74
 5.49046   7111.89
 5.49982   8037.2
 5.50918   9896.02
 5.51854   13296.9
 5.5279   18779.3
 5.53726   25332.7
 5.54662   29689.6
 5.55598   28727.3
 5.56534   23207.2
 5.5747   16892.9
 5.58406   12314.1
 5.59342   9709.41
 5.60278   9280.14
 5.61214   7462.59
 5.6215   6674.08
 5.63086   6312.15
 5.64022   6064.43
 5.64958   5944.36
 5.65894   5885.46
 5.6683   5843.52
 5.67766   5762.01
 5.68702   5739.54
 5.69638   5725.98
 5.70574   5691.4
 5.7151   5655.58
 5.72446   5669.93
 5.73382   5691.76
 5.74318   5689.97
 5.75254   5688.92
 5.7619   5710.59
 5.77126   5721.07
 5.78062   5702.27
 5.78998   5667.61
 5.79934   5678.39
 5.8087   5687.01
 5.81806   5633.39
 5.82742   5622.36
 5.83678   5639.64
 5.84614   5651.09
 5.8555   5628.63
 5.86486   5665.74
 5.87422   5695.15
 5.88358   5740.86
 5.89294   5783.73
 5.9023   6016.65
 5.91166   6546.27
 5.92102   7694.89
 5.93038   10137.5
 5.93974   12160.6
 5.9491   11917.9
 5.95846   9779.27
 5.96782   7720.37
 5.97718   6785.18
 5.98654   6530.49
 5.9959   6356.11
 6.00526   6185.34
 6.01462   6010.12
 6.02398   5901.81
 6.03334   5813.66
 6.0427   5752.23
 6.05206   5726.32
 6.06142   5720.51
 6.07078   5674.34
 6.08014   5687.81
 6.0895   5701.7
 6.09886   5679.25
 6.10822   5656.1
 6.11758   5671.39
 6.12694   5668.34
 6.1363   5675.91
 6.14566   5663.2
 6.15502   5678.48
 6.16438   5692.88
 6.17374   5699.08
 6.1831   5698.19
 6.19246   5707.99
 6.20182   5734.14
 6.21118   5733.48
 6.22054   5728.23
 6.2299   5759.53
 6.23926   5764.09
 6.24862   5758.17
 6.25798   5755.06
 6.26734   5776.66
 6.2767   5799.77
 6.28606   5786.95
 6.29542   5800.89
 6.30478   5825.15
 6.31414   5824.66
 6.3235   5821.33
 6.33286   5845.11
 6.34222   5863.59
 6.35158   5866.33
 6.36094   5860.99
 6.3703   5867.62
 6.37966   5868.32
 6.38902   5877.75
 6.39838   5890.4
 6.40774   5928.33
 6.4171   5962.99
 6.42646   5946.59
 6.43582   5979.76
 6.44518   6025.08
 6.45454   6019.55
 6.4639   6052.32
 6.47326   6060.84
 6.48262   6101.51
 6.49198   6140.78
 6.50134   6125.65
 6.5107   6156.42
 6.52006   6192.66
 6.52942   6191.75
 6.53878   6210.16
 6.54814   6243.93
 6.5575   6276.83
 6.56686   6292.24
 6.57622   6318.26
 6.58558   6363.47
 6.59494   6433.59
 6.6043   6517.9
 6.61366   6526.46
 6.62302   6591.59
 6.63238   6670.03
 6.64174   6700.06
 6.6511   6750.81
 6.66046   6848.2
 6.66982   6853.55
 6.67918   6907.18
 6.68854   6925.56
 6.6979   6970.6
 6.70726   7012.32
 6.71662   7059.62
 6.72598   7070.75
 6.73534   7191.28
 6.7447   7247.7
 6.75406   7285.24
 6.76342   7430.32
 6.77278   7580.62
 6.78214   7642.95
 6.7915   7742.92
 6.80086   7836.89
 6.81022   7957.1
 6.81958   8165.84
 6.82894   8443.03
 6.8383   8803.45
 6.84766   10137.1
 6.85702   13602.5
 6.86638   22343.1
 6.87574   29571.1
 6.8851   26733.1
 6.89446   17484.2
 6.90382   10864.2
 6.91318   9318.79
 6.92254   8774.43
 6.9319   8531.52
 6.94126   8278.34
 6.95062   8321.24
 6.95998   8251.63
 6.96934   8057.71
 6.9787   8244.64
 6.98806   8365.16
 6.99742   8521.51
 7.00678   9005.69
 7.01614   9519.57
 7.0255   10028.2
 7.03486   10212.8
 7.04422   9806.42
 7.05358   9190.63
 7.06294   8653.68
 7.0723   8099.27
 7.08166   7676.56
 7.09102   7406.18
 7.10038   7270.45
 7.10974   7118.29
 7.1191   7059.96
 7.12846   7005.47
 7.13782   6959.61
 7.14718   6931.3
 7.15654   6880.39
 7.1659   6847.52
 7.17526   6857.36
 7.18462   6802.71
 7.19398   6775.6
 7.20334   6730.82
 7.2127   6723.28
 7.22206   6696.44
 7.23142   6655.29
 7.24078   6644.46
 7.25014   6669.23
 7.2595   6635.03
 7.26886   6626.57
 7.27822   6612.94
 7.28758   6600.61
 7.29694   6590.89
 7.3063   6561.83
 7.31566   6573.26
 7.32502   6579.42
 7.33438   6566.41
 7.34374   6575.49
 7.3531   6563.91
 7.36246   6550.61
 7.37182   6531.66
 7.38118   6490.04
 7.39054   6458.18
 7.3999   6438.34
 7.40926   6400.4
 7.41862   6377.63
 7.42798   6363.19
 7.43734   6362.74
 7.4467   6348.18
 7.45606   6360.34
 7.46542   6363.91
 7.47478   6364.46
 7.48414   6379.47
 7.4935   6367.29
 7.50286   6396.86
 7.51222   6433.67
 7.52158   6465.82
 7.53094   6520.62
 7.5403   6619.09
 7.54966   6780.8
 7.55902   7056.63
 7.56838   7505.62
 7.57774   8239.59
 7.5871   9356.65
 7.59646   10745.6
 7.60582   11939.1
 7.61518   12324.2
 7.62454   11664.2
 7.6339   10315.8
 7.64326   8986.14
 7.65262   7989.8
 7.66198   7326.08
 7.67134   6960.21
 7.6807   6717.99
 7.69006   6567.32
 7.69942   6470.85
 7.70878   6424.72
 7.71814   6363.45
 7.7275   6356.64
 7.73686   6317.23
 7.74622   6292.23
 7.75558   6289.91
 7.76494   6274.58
 7.7743   6311.64
 7.78366   6340.26
 7.79302   6345.35
 7.80238   6351.35
 7.81174   6363.54
 7.8211   6394.44
 7.83046   6439.31
 7.83982   6453.9
 7.84918   6461.74
 7.85854   6585.89
 7.8679   6542.16
 7.87726   6592.46
 7.88662   6766.43
 7.89598   6948.19
 7.90534   7312.65
 7.9147   11155.1
 7.92406   12601.2
 7.93342   14926.6
 7.94278   21154.8
 7.95214   14139.4
 7.9615   15696.8
 7.97086   14367.7
 7.98022   8085.51
 7.98958   7261.26
 7.99894   6870.58
 8.0083   6723.55
 8.01766   6855.37
 8.02702   6930
 8.03638   7296.11
 8.04574   7992.89
 8.0551   9066.32
 8.06446   10543.4
 8.07382   11897.6
 8.08318   12330.8
 8.09254   11603
 8.1019   10130.7
 8.11126   8615.23
 8.12062   7520.29
 8.12998   6849.85
 8.13934   6427.38
 8.1487   6213.83
 8.15806   6052.86
 8.16742   5948.22
 8.17678   5870.42
 8.18614   5812.14
 8.1955   5742.12
 8.20486   5691.64
 8.21422   5661.79
 8.22358   5630.97
 8.23294   5624.6
 8.2423   5602.17
 8.25166   5565.59
 8.26102   5544.14
 8.27038   5520.57
 8.27974   5508.52
 8.2891   5489.26
 8.29846   5491.48
 8.30782   5510.52
 8.31718   5511.8
 8.32654   5547.25
 8.3359   5620.98
 8.34526   5769.35
 8.35462   6028.87
 8.36398   6456.34
 8.37334   7162.5
 8.3827   8237.93
 8.39206   9859.16
 8.40142   11502.8
 8.41078   11762
 8.42014   10033.8
 8.4295   7724.07
 8.43886   6335.31
 8.44822   5718.45
 8.45758   5475.46
 8.46694   5359.65
 8.4763   5286.56
 8.48566   5242.43
 8.49502   5217.21
 8.50438   5194.68
 8.51374   5171.07
 8.5231   5154.92
 8.53246   5141.29
 8.54182   5122.75
 8.55118   5120.56
 8.56054   5088.81
 8.5699   5069.84
 8.57926   5057.96
 8.58862   5066.92
 8.59798   5054.98
 8.60734   5048.92
 8.6167   5044.04
 8.62606   5036.82
 8.63542   5033.95
 8.64478   5028.68
 8.65414   5023.39
 8.6635   5022.83
 8.67286   5007.93
 8.68222   4992.73
 8.69158   4994.83
 8.70094   4994.89
 8.7103   4995.53
 8.71966   4998.38
 8.72902   4998.87
 8.73838   4989.67
 8.74774   5007.49
 8.7571   5021.63
 8.76646   5034.18
 8.77582   5047.84
 8.78518   5105.06
 8.79454   5196.38
 8.8039   5294.88
 8.81326   5472
 8.82262   5753.3
 8.83198   6158.71
 8.84134   6663.33
 8.8507   7330.98
 8.86006   7894.86
 8.86942   8423.98
 8.87878   7008.43
 8.88814   6230.48
 8.8975   5651.86
 8.90686   5296.65
 8.91622   5135.47
 8.92558   5085.1
 8.93494   5021.95
 8.9443   5016.95
 8.95366   5004.15
 8.96302   5004.45
 8.97238   5044.39
 8.98174   5094.79
 8.9911   5181.01
 9.00046   5327.29
 9.00982   5526.78
 9.01918   5672.42
 9.02854   5731.89
 9.0379   5640.38
 9.04726   5444.67
 9.05662   5237.28
 9.06598   5103.1
 9.07534   4996.28
 9.0847   4930.21
 9.09406   4907.05
 9.10342   4878.74
 9.11278   4866.04
 9.12214   4865.85
 9.1315   4863.64
 9.14086   4861.55
 9.15022   4860.3
 9.15958   4877.15
 9.16894   4901.91
 9.1783   4923.95
 9.18766   4967.15
 9.19702   5036.18
 9.20638   5165.2
 9.21574   5390.12
 9.2251   5699.3
 9.23446   6133.01
 9.24382   6631.43
 9.25318   7000.86
 9.26254   7058.74
 9.2719   6791.72
 9.28126   6330.4
 9.29062   5883.77
 9.29998   5508.93
 9.30934   5303.52
 9.3187   5180.74
 9.32806   5135.35
 9.33742   5150.93
 9.34678   5211.03
 9.35614   5287.25
 9.3655   5321.68
 9.37486   5288.78
 9.38422   5206.98
 9.39358   5160.16
 9.40294   5125.64
 9.4123   5175.88
 9.42166   5297.25
 9.43102   5484.41
 9.44038   5740.71
 9.44974   5970.01
 9.4591   6089.48
 9.46846   6118.3
 9.47782   6103.09
 9.48718   6098.97
 9.49654   6082.15
 9.5059   6007.83
 9.51526   5836.11
 9.52462   5592.4
 9.53398   5369.78
 9.54334   5229.6
 9.5527   5103.33
 9.56206   5031.79
 9.57142   4979.68
 9.58078   4941.67
 9.59014   4927.3
 9.5995   4924.22
 9.60886   4924.92
 9.61822   4915.09
 9.62758   4927.39
 9.63694   4933.24
 9.6463   4940.77
 9.65566   4950.2
 9.66502   4967.38
 9.67438   5014.4
 9.68374   5099.07
 9.6931   5542.04
 9.70246   6044.89
 9.71182   6463.42
 9.72118   6774.67
 9.73054   5979.9
 9.7399   5692.2
 9.74926   5422.4
 9.75862   5480.24
 9.76798   5707.72
 9.77734   6094.09
 9.7867   6613.35
 9.79606   7159.99
 9.80542   7552.4
 9.81478   7632.21
 9.82414   7516.99
 9.8335   7692.31
 9.84286   8790.58
 9.85222   11080.4
 9.86158   12948.3
 9.87094   12235.5
 9.8803   9606.22
 9.88966   7231.5
 9.89902   5980.35
 9.90838   5445.85
 9.91774   5206.41
 9.9271   5123.85
 9.93646   5080.58
 9.94582   5050.78
 9.95518   5029.55
 9.96454   5034.18
 9.9739   5031.89
 9.98326   5034.49
 9.99262   5034.5
 10.002   5043.15
 10.0113   5038.4
 10.0207   5051.19
 10.0301   5062.06
 10.0394   5088.41
 10.0488   5135.47
 10.0581   5162.62
 10.0675   5177.71
 10.0769   5166.81
 10.0862   5125.56
 10.0956   5085.28
 10.1049   5054.45
 10.1143   5028.43
 10.1237   5010.48
 10.133   5005.39
 10.1424   5014.54
 10.1517   5000.14
 10.1611   5009.12
 10.1705   5015.07
 10.1798   5012.38
 10.1892   5002.85
 10.1985   5023.64
 10.2079   5029.37
 10.2173   5036.14
 10.2266   5029.27
 10.236   5053.05
 10.2453   5078.14
 10.2547   5123.59
 10.2641   5234.67
 10.2734   5552.6
 10.2828   6244.18
 10.2921   7438.3
 10.3015   8352.16
 10.3109   8105.26
 10.3202   6837.72
 10.3296   5923.52
 10.3389   5378.14
 10.3483   5188.56
 10.3577   5115.61
 10.367   5104.09
 10.3764   5072.05
 10.3857   5058.43
 10.3951   5059.5
 10.4045   5087.21
 10.4138   5068.51
 10.4232   5049.72
 10.4325   5056.46
 10.4419   5098.14
 10.4513   5088.86
 10.4606   5126.33
 10.47   5205.38
 10.4793   5410.41
 10.4887   5567.42
 10.4981   5939.54
 10.5074   5854.95
 10.5168   5555.83
 10.5261   5315.18
 10.5355   5227.19
 10.5449   5168.17
 10.5542   5186.55
 10.5636   5140.01
 10.5729   5061.24
 10.5823   5028.08
 10.5917   5019.52
 10.601   4992.29
 10.6104   4969.47
 10.6197   4953.84
 10.6291   4967.66
 10.6385   4962.63
 10.6478   4944.88
 10.6572   4966.22
 10.6665   4987.85
 10.6759   5014.42
 10.6853   5065.96
 10.6946   5142.47
 10.704   5244.35
 10.7133   5325.54
 10.7227   5334.71
 10.7321   5306.81
 10.7414   5211.51
 10.7508   5113.22
 10.7601   5013.03
 10.7695   4946.76
 10.7789   4904.65
 10.7882   4873.33
 10.7976   4854.65
 10.8069   4826.95
 10.8163   4827.49
 10.8257   4820.68
 10.835   4811.2
 10.8444   4810.86
 10.8537   4801.68
 10.8631   4799.45
 10.8725   4783.91
 10.8818   4769.77
 10.8912   4747.63
 10.9005   4743.07
 10.9099   4724.42
 10.9193   4713.95
 10.9286   4706.71
 10.938   4703.48
 10.9473   4702.35
 10.9567   4693.3
 10.9661   4690.69
 10.9754   4689.47
 10.9848   4681.35
 10.9941   4685.88
 11.0035   4689.29
 11.0129   4706.05
 11.0222   4713.4
 11.0316   4717.05
 11.0409   4744.14
 11.0503   4797.81
 11.0597   4868.9
 11.069   4965.27
 11.0784   5125.92
 11.0877   5331.25
 11.0971   5573.67
 11.1065   5737.39
 11.1158   5781.54
 11.1252   5676.61
 11.1345   5467.74
 11.1439   5221.88
 11.1533   5021.21
 11.1626   4870.55
 11.172   4772.58
 11.1813   4721.2
 11.1907   4657.96
 11.2001   4629.1
 11.2094   4719.96
 11.2188   4875.61
 11.2281   4645.1
 11.2375   4632.18
 11.2469   4640.26
 11.2562   4633.66
 11.2656   4643.99
 11.2749   4655.13
 11.2843   4669.78
 11.2937   4674.7
 11.303   4650.96
 11.3124   4612.19
 11.3217   4558.62
 11.3311   4528.74
 11.3405   4508.62
 11.3498   4483.84
 11.3592   4472.25
 11.3685   4469.14
 11.3779   4463.53
 11.3873   4459.87
 11.3966   4448.05
 11.406   4455.03
 11.4153   4458.26
 11.4247   4457.41
 11.4341   4446.73
 11.4434   4463.37
 11.4528   4490.84
 11.4621   4500.56
 11.4715   4534.36
 11.4809   4580.87
 11.4902   4660.03
 11.4996   4775.57
 11.5089   4893.23
 11.5183   4997.03
 11.5277   5064.1
 11.537   5024.46
 11.5464   4914.89
 11.5557   4773.14
 11.5651   4655.9
 11.5745   4574.64
 11.5838   4500.75
 11.5932   4450.41
 11.6025   4423.53
 11.6119   4397.56
 11.6213   4392.51
 11.6306   4368.72
 11.64   4357.66
 11.6493   4344.84
 11.6587   4331.29
 11.6681   4312.22
 11.6774   4316.42
 11.6868   4310.43
 11.6961   4298.46
 11.7055   4297.36
 11.7149   4289.44
 11.7242   4288.88
 11.7336   4283.34
 11.7429   4282.43
 11.7523   4301.84
 11.7617   4288.29
 11.771   4273.82
 11.7804   4255.1
 11.7897   4250.8
 11.7991   4250.13
 11.8085   4253.09
 11.8178   4246.41
 11.8272   4246.48
 11.8365   4247.65
 11.8459   4254.08
 11.8553   4279.36
 11.8646   4286.43
 11.874   4336.68
 11.8833   4456.1
 11.8927   4677.49
 11.9021   4852.3
 11.9114   4894.74
 11.9208   4662.19
 11.9301   4473.77
 11.9395   4383.25
 11.9489   4349.45
 11.9582   4377.6
 11.9676   4439.11
 11.9769   4506.9
 11.9863   4574.77
 11.9957   4618.19
 12.005   4620.01
 12.0144   4567.57
 12.0237   4484.19
 12.0331   4428.84
 12.0425   4378.24
 12.0518   4364.4
 12.0612   4371.69
 12.0705   4422.43
 12.0799   4506.29
 12.0893   4636.49
 12.0986   4796.74
 12.108   5011.09
 12.1173   5198.73
 12.1267   5313.17
 12.1361   5285.99
 12.1454   5140.46
 12.1548   4913.13
 12.1641   4706.43
 12.1735   4527.71
 12.1829   4388.65
 12.1922   4284.71
 12.2016   4222.32
 12.2109   4175.86
 12.2203   4136.25
 12.2297   4112.62
 12.239   4091.09
 12.2484   4076.57
 12.2577   4060.26
 12.2671   4061.28
 12.2765   4050.88
 12.2858   4054.17
 12.2952   4049.44
 12.3045   4043.13
 12.3139   4055.23
 12.3233   4064.15
 12.3326   4075.61
 12.342   4109.33
 12.3513   4160.56
 12.3607   4225.49
 12.3701   4287.09
 12.3794   4337.68
 12.3888   4374.7
 12.3981   4387.24
 12.4075   4386.83
 12.4169   4412.27
 12.4262   4472.87
 12.4356   4563.99
 12.4449   4653.77
 12.4543   4698.12
 12.4637   4689.11
 12.473   4643.67
 12.4824   4570.15
 12.4917   4458.06
 12.5011   4361.86
 12.5105   4259.96
 12.5198   4173
 12.5292   4105.28
 12.5385   4064.29
 12.5479   4030.74
 12.5573   4001.12
 12.5666   3990.27
 12.576   3985.43
 12.5853   3969.26
 12.5947   3949.26
 12.6041   3948.06
 12.6134   3947.84
 12.6228   3958.36
 12.6321   3981.4
 12.6415   3991.01
 12.6509   4031.74
 12.6602   4092.91
 12.6696   4188.19
 12.6789   4327.37
 12.6883   4510.95
 12.6977   4750.38