File: docs/GuiliangJun25_tutorial_output/integrals/MA2-00001_spotsmasked.chi
MA2-00001.tif Azm= 0.00
2-Theta Angle (Degrees)
Intensity
       2500
 1.00702   7872.49
 1.01638   7820.48
 1.02574   7751.65
 1.0351   7694.79
 1.04446   7627.58
 1.05382   7614.05
 1.06318   7544.85
 1.07254   7488.65
 1.0819   7448.85
 1.09126   7442.38
 1.10062   7415.67
 1.10998   7342.54
 1.11934   7364.91
 1.1287   7283.67
 1.13806   7239.28
 1.14742   7218.72
 1.15678   7219.53
 1.16614   7179.13
 1.1755   7191.05
 1.18486   7154.43
 1.19422   7152.75
 1.20358   7149.6
 1.21294   7121.49
 1.2223   7097.95
 1.23166   7091.96
 1.24102   7094.55
 1.25038   7049.7
 1.25974   7125.43
 1.2691   7086.34
 1.27846   7082.75
 1.28782   7062.68
 1.29718   7105.53
 1.30654   7122.63
 1.3159   7082.49
 1.32526   7082.35
 1.33462   7096.9
 1.34398   7098.65
 1.35334   7102.93
 1.3627   7155.27
 1.37206   7138.38
 1.38142   7179.96
 1.39078   7186.88
 1.40014   7213.47
 1.4095   7266.64
 1.41886   7262.2
 1.42822   7351.53
 1.43758   7345.1
 1.44694   7394.47
 1.4563   7456.45
 1.46566   7492.01
 1.47502   7559.01
 1.48438   7598.02
 1.49374   7647.2
 1.5031   7661.82
 1.51246   7691.24
 1.52182   7710.9
 1.53118   7701.75
 1.54054   7710.03
 1.5499   7695.91
 1.55926   7668.51
 1.56862   7636.18
 1.57798   7653.78
 1.58734   7649.16
 1.5967   7664.58
 1.60606   7632.65
 1.61542   7621.68
 1.62478   7609.03
 1.63414   7635.74
 1.6435   7608.03
 1.65286   7617.63
 1.66222   7622.46
 1.67158   7616.8
 1.68094   7636.02
 1.6903   7635.09
 1.69966   7644.28
 1.70902   7673.4
 1.71838   7652.38
 1.72774   7655.18
 1.7371   7673.42
 1.74646   7693.83
 1.75582   7686.12
 1.76518   7702.28
 1.77454   7728.06
 1.7839   7757.01
 1.79326   7767.53
 1.80262   7816.07
 1.81198   7840.1
 1.82134   7865.66
 1.8307   7906.98
 1.84006   7911.7
 1.84942   7959.65
 1.85878   8010.01
 1.86814   8026.77
 1.8775   8086.78
 1.88686   8156.01
 1.89622   8184.33
 1.90558   8235.94
 1.91494   8271.92
 1.9243   8326.25
 1.93366   8376.44
 1.94302   8404.22
 1.95238   8441.65
 1.96174   8505.42
 1.9711   8557.48
 1.98046   8579.64
 1.98982   8631.73
 1.99918   8670.52
 2.00854   8721.12
 2.0179   8750.13
 2.02726   8810.56
 2.03662   8853.38
 2.04598   8860.6
 2.05534   8948.98
 2.0647   8980.51
 2.07406   9028.18
 2.08342   9066.83
 2.09278   9137.44
 2.10214   9239.9
 2.1115   9291.23
 2.12086   9318.46
 2.13022   9389.81
 2.13958   9446.03
 2.14894   9519.52
 2.1583   9607.86
 2.16766   9710.49
 2.17702   9863.71
 2.18638   10069.9
 2.19574   10341.1
 2.2051   10879.2
 2.21446   11876.9
 2.22382   14047.3
 2.23318   18159.4
 2.24254   23760.3
 2.2519   27472.4
 2.26126   26176.3
 2.27062   20917.2
 2.27998   15990.1
 2.28934   13065.2
 2.2987   11695.9
 2.30806   11112.3
 2.31742   10888.5
 2.32678   10752.7
 2.33614   10741.5
 2.3455   10775
 2.35486   10799.3
 2.36422   10814.7
 2.37358   10879.4
 2.38294   10923.9
 2.3923   10997.3
 2.40166   11095.4
 2.41102   11115.4
 2.42038   11185.9
 2.42974   11253
 2.4391   11339.7
 2.44846   11402.5
 2.45782   11467
 2.46718   11541.8
 2.47654   11624.4
 2.4859   11721.4
 2.49526   11791.6
 2.50462   11855.6
 2.51398   11924.2
 2.52334   12013.3
 2.5327   12082.4
 2.54206   12193.9
 2.55142   12209.2
 2.56078   12295.9
 2.57014   12341.7
 2.5795   12408.5
 2.58886   12497.8
 2.59822   12534.5
 2.60758   12579.6
 2.61694   12630.7
 2.6263   12663.5
 2.63566   12716.2
 2.64502   12752.6
 2.65438   12802.8
 2.66374   12808
 2.6731   12831.9
 2.68246   12869.8
 2.69182   12886
 2.70118   12902.9
 2.71054   12960.2
 2.7199   12940.8
 2.72926   12945.6
 2.73862   12938.5
 2.74798   12932.3
 2.75734   12927.2
 2.7667   12909.5
 2.77606   12906.6
 2.78542   12858.9
 2.79478   12826.2
 2.80414   12797.8
 2.8135   12791.9
 2.82286   12775.7
 2.83222   12739.5
 2.84158   12720.8
 2.85094   12679.9
 2.8603   12647.4
 2.86966   12620.5
 2.87902   12591.8
 2.88838   12552.3
 2.89774   12496
 2.9071   12461.4
 2.91646   12438.3
 2.92582   12379.9
 2.93518   12345.7
 2.94454   12330.4
 2.9539   12273.5
 2.96326   12241
 2.97262   12171.1
 2.98198   12127.8
 2.99134   12053.5
 3.0007   12011
 3.01006   11955.2
 3.01942   11912.2
 3.02878   11887.1
 3.03814   11822.8
 3.0475   11741.3
 3.05686   11680.2
 3.06622   11600.2
 3.07558   11572.8
 3.08494   11508.7
 3.0943   11472.2
 3.10366   11404.4
 3.11302   11367.7
 3.12238   11331.9
 3.13174   11278
 3.1411   11265.5
 3.15046   11226.5
 3.15982   11180.7
 3.16918   11134.3
 3.17854   11093.1
 3.1879   11082.3
 3.19726   11063
 3.20662   11003.9
 3.21598   10967.6
 3.22534   10937.8
 3.2347   10927.2
 3.24406   10893.4
 3.25342   10848
 3.26278   10850
 3.27214   10809.2
 3.2815   10772.4
 3.29086   10756.9
 3.30022   10761
 3.30958   10744
 3.31894   10727.1
 3.3283   10731.1
 3.33766   10717.3
 3.34702   10685.5
 3.35638   10660
 3.36574   10687.6
 3.3751   10689.2
 3.38446   10672.8
 3.39382   10681.4
 3.40318   10686.2
 3.41254   10687.3
 3.4219   10678.4
 3.43126   10696.3
 3.44062   10701.8
 3.44998   10714.2
 3.45934   10687.3
 3.4687   10703.2
 3.47806   10710
 3.48742   10704.9
 3.49678   10677.6
 3.50614   10697.5
 3.5155   10708.5
 3.52486   10686.8
 3.53422   10682.5
 3.54358   10709.4
 3.55294   10715.1
 3.5623   10676.5
 3.57166   10679.1
 3.58102   10702.7
 3.59038   10656.4
 3.59974   10654.1
 3.6091   10677.7
 3.61846   10705.2
 3.62782   10617.1
 3.63718   10579.5
 3.64654   10624.7
 3.6559   10634.7
 3.66526   10547.6
 3.67462   10475.3
 3.68398   10527.3
 3.69334   10479
 3.7027   10380.3
 3.71206   10323.6
 3.72142   10321.4
 3.73078   10215.6
 3.74014   10086.3
 3.7495   10060.8
 3.75886   10026.6
 3.76822   9883.66
 3.77758   9754.96
 3.78694   9781.68
 3.7963   9738.65
 3.80566   9526.96
 3.81502   9478.89
 3.82438   9587.58
 3.83374   9472.94
 3.8431   9335.79
 3.85246   9366.42
 3.86182   9323.29
 3.87118   9232.28
 3.88054   9093.51
 3.8899   9061.59
 3.89926   9031.14
 3.90862   8908.22
 3.91798   8853.9
 3.92734   8852.6
 3.9367   8778.85
 3.94606   8695.39
 3.95542   8706.16
 3.96478   8593.21
 3.97414   8581.61
 3.9835   8545.47
 3.99286   8468.76
 4.00222   8498.38
 4.01158   8428.68
 4.02094   8322.31
 4.0303   8361
 4.03966   8364.6
 4.04902   8232.6
 4.05838   8198.36
 4.06774   8255.22
 4.0771   8191.52
 4.08646   8093.41
 4.09582   8055.94
 4.10518   8058.15
 4.11454   8055.09
 4.1239   7920.1
 4.13326   7929.1
 4.14262   7934.11
 4.15198   7902.43
 4.16134   7792.39
 4.1707   7784.83
 4.18006   7797.9
 4.18942   7803.09
 4.19878   7702.13
 4.20814   7754.06
 4.2175   7858.57
 4.22686   7717
 4.23622   7619.28
 4.24558   7712.84
 4.25494   7745.7
 4.2643   7693.54
 4.27366   7671.77
 4.28302   7692.6
 4.29238   7691.26
 4.30174   7616.27
 4.3111   7630.98
 4.32046   7641.9
 4.32982   7641.61
 4.33918   7579.24
 4.34854   7606.7
 4.3579   7640.13
 4.36726   7613.87
 4.37662   7568.23
 4.38598   7558.94
 4.39534   7581.85
 4.4047   7594.29
 4.41406   7528.38
 4.42342   7519.83
 4.43278   7555.06
 4.44214   7523
 4.4515   7522.11
 4.46086   7641.39
 4.47022   7867.11
 4.47958   8305.8
 4.48894   9119.77
 4.4983   10144.8
 4.50766   10727.4
 4.51702   10362.7
 4.52638   9404.79
 4.53574   8393.33
 4.5451   7678.16
 4.55446   7290.58
 4.56382   7084.36
 4.57318   6984.63
 4.58254   6898.99
 4.5919   6827.28
 4.60126   6770.44
 4.61062   6774.89
 4.61998   6711.1
 4.62934   6684.81
 4.6387   6690.95
 4.64806   6675.11
 4.65742   6633.71
 4.66678   6693.2
 4.67614   6773.05
 4.6855   7011.44
 4.69486   7540.17
 4.70422   8495.29
 4.71358   9643.1
 4.72294   10284.1
 4.7323   9865.86
 4.74166   8754.1
 4.75102   7727.72
 4.76038   7048.22
 4.76974   6716.25
 4.7791   6538.22
 4.78846   6450.58
 4.79782   6405.47
 4.80718   6381.62
 4.81654   6354.25
 4.8259   6400.95
 4.83526   6444.9
 4.84462   6595.09
 4.85398   6886.01
 4.86334   7521.11
 4.8727   8768.46
 4.88206   10736.6
 4.89142   12719.8
 4.90078   13438.4
 4.91014   12322.9
 4.9195   10219.1
 4.92886   8392.34
 4.93822   7278.5
 4.94758   6716.53
 4.95694   6426.27
 4.9663   6300.33
 4.97566   6190.27
 4.98502   6156.57
 4.99438   6118.03
 5.00374   6093.74
 5.0131   6058.09
 5.02246   6060.34
 5.03182   6041.38
 5.04118   6033.09
 5.05054   6058.12
 5.0599   6097.79
 5.06926   6184.82
 5.07862   6364.15
 5.08798   6636.66
 5.09734   7291.67
 5.1067   8922.37
 5.11606   11945.2
 5.12542   19555.7
 5.13478   37387.3
 5.14414   50168.8
 5.1535   41348.6
 5.16286   26093.2
 5.17222   14743.3
 5.18158   9275.64
 5.19094   7149.85
 5.2003   6560.01
 5.20966   6293.1
 5.21902   6139.27
 5.22838   5999.7
 5.23774   5942.23
 5.2471   5868.54
 5.25646   5829.41
 5.26582   5803.78
 5.27518   5765.35
 5.28454   5765.89
 5.2939   5761.61
 5.30326   5732.61
 5.31262   5720.81
 5.32198   5714.58
 5.33134   5698.98
 5.3407   5688.08
 5.35006   5678.65
 5.35942   5679.63
 5.36878   5687.29
 5.37814   5688.37
 5.3875   5692.75
 5.39686   5702.3
 5.40622   5743.73
 5.41558   5736.57
 5.42494   5769.92
 5.4343   5814.76
 5.44366   5875.36
 5.45302   5959.26
 5.46238   6070.07
 5.47174   6256.78
 5.4811   6586.63
 5.49046   7103.51
 5.49982   8034.53
 5.50918   9896.02
 5.51854   13296.9
 5.5279   18779.3
 5.53726   25332.7
 5.54662   29689.6
 5.55598   28727.3
 5.56534   23207.2
 5.5747   16865.5
 5.58406   12093.3
 5.59342   9308.72
 5.60278   7781.59
 5.61214   6966.2
 5.6215   6486.32
 5.63086   6206.17
 5.64022   6035.4
 5.64958   5917.26
 5.65894   5847.65
 5.6683   5796.07
 5.67766   5743.91
 5.68702   5716.54
 5.69638   5681.98
 5.70574   5656.42
 5.7151   5645.05
 5.72446   5651.18
 5.73382   5647.69
 5.74318   5664.91
 5.75254   5679.44
 5.7619   5690.57
 5.77126   5680.05
 5.78062   5680.65
 5.78998   5655.09
 5.79934   5655.23
 5.8087   5649.01
 5.81806   5623.78
 5.82742   5615.13
 5.83678   5614.77
 5.84614   5614.58
 5.8555   5619.3
 5.86486   5652.73
 5.87422   5670.55
 5.88358   5720.47
 5.89294   5778.12
 5.9023   6009.3
 5.91166   6546.27
 5.92102   7693.88
 5.93038   10143
 5.93974   12153.7
 5.9491   11907.4
 5.95846   9778.18
 5.96782   7720.37
 5.97718   6785.18
 5.98654   6521.83
 5.9959   6355.03
 6.00526   6180.17
 6.01462   5995.27
 6.02398   5884.74
 6.03334   5782.06
 6.0427   5736.37
 6.05206   5713.18
 6.06142   5717.83
 6.07078   5673.43
 6.08014   5685.88
 6.0895   5700.78
 6.09886   5679.25
 6.10822   5656.1
 6.11758   5671.39
 6.12694   5667.17
 6.1363   5675.4
 6.14566   5662.41
 6.15502   5677.3
 6.16438   5692.88
 6.17374   5698.15
 6.1831   5696.31
 6.19246   5707.14
 6.20182   5732.53
 6.21118   5732.14
 6.22054   5728.23
 6.2299   5759.53
 6.23926   5764.09
 6.24862   5758.17
 6.25798   5753.51
 6.26734   5775.59
 6.2767   5795.78
 6.28606   5783.14
 6.29542   5795.92
 6.30478   5814.3
 6.31414   5814.08
 6.3235   5800.9
 6.33286   5828.28
 6.34222   5842.1
 6.35158   5845.27
 6.36094   5841.48
 6.3703   5844.42
 6.37966   5838.82
 6.38902   5846.44
 6.39838   5854.91
 6.40774   5880.59
 6.4171   5907.35
 6.42646   5882.42
 6.43582   5899.21
 6.44518   5930.16
 6.45454   5906.77
 6.4639   5914.33
 6.47326   5913.91
 6.48262   5917.65
 6.49198   5937.11
 6.50134   5925.66
 6.5107   5949.39
 6.52006   5984.41
 6.52942   5968.26
 6.53878   5978.27
 6.54814   6007.76
 6.5575   6026.72
 6.56686   6039.31
 6.57622   6037.99
 6.58558   6061.66
 6.59494   6095.29
 6.6043   6105.99
 6.61366   6095.51
 6.62302   6133.35
 6.63238   6147.7
 6.64174   6143.07
 6.6511   6166.75
 6.66046   6214.94
 6.66982   6226.93
 6.67918   6250.42
 6.68854   6264.3
 6.6979   6306.14
 6.70726   6335.3
 6.71662   6354.86
 6.72598   6395.12
 6.73534   6448.1
 6.7447   6475.95
 6.75406   6480.12
 6.76342   6524.12
 6.77278   6571.49
 6.78214   6538.79
 6.7915   6547.15
 6.80086   6527.15
 6.81022   6515.14
 6.81958   6530.93
 6.82894   6523.63
 6.8383   6546.44
 6.84766   6597.34
 6.85702   6558.34
 6.86638   6579.26
 6.87574   6592.24
 6.8851   6614.17
 6.89446   6610.9
 6.90382   6654.47
 6.91318   6705.72
 6.92254   6740.99
 6.9319   6760.18
 6.94126   6750.46
 6.95062   6834.86
 6.95998   6900.41
 6.96934   6950.41
 6.9787   7108.1
 6.98806   7313.69
 6.99742   7611.98
 7.00678   8118.1
 7.01614   8771.51
 7.0255   9368.33
 7.03486   9576.45
 7.04422   9296.74
 7.05358   8686.76
 7.06294   8153.03
 7.0723   7665.2
 7.08166   7267.5
 7.09102   6998.72
 7.10038   6845.38
 7.10974   6717.13
 7.1191   6662.56
 7.12846   6637.95
 7.13782   6573.46
 7.14718   6563.07
 7.15654   6536.98
 7.1659   6491.69
 7.17526   6517.59
 7.18462   6491.62
 7.19398   6473.31
 7.20334   6470.52
 7.2127   6482.94
 7.22206   6453.33
 7.23142   6438.71
 7.24078   6437.92
 7.25014   6470.52
 7.2595   6464.28
 7.26886   6468.5
 7.27822   6463.61
 7.28758   6441.92
 7.29694   6439.63
 7.3063   6420.5
 7.31566   6431.6
 7.32502   6451.81
 7.33438   6450.19
 7.34374   6475.74
 7.3531   6477.83
 7.36246   6479.39
 7.37182   6478.26
 7.38118   6458.92
 7.39054   6437.15
 7.3999   6425.34
 7.40926   6387.45
 7.41862   6367.47
 7.42798   6355.25
 7.43734   6358.52
 7.4467   6347.23
 7.45606   6357.22
 7.46542   6362.34
 7.47478   6362.6
 7.48414   6373.92
 7.4935   6364.04
 7.50286   6392.45
 7.51222   6423.31
 7.52158   6453.19
 7.53094   6507.59
 7.5403   6598.14
 7.54966   6760.35
 7.55902   7036.51
 7.56838   7476.06
 7.57774   8210.3
 7.5871   9325.18
 7.59646   10709.2
 7.60582   11906
 7.61518   12287.8
 7.62454   11615.3
 7.6339   10273.5
 7.64326   8893.34
 7.65262   7904.84
 7.66198   7229.59
 7.67134   6740.51
 7.6807   6482.4
 7.69006   6321.56
 7.69942   6196.01
 7.70878   6137.34
 7.71814   6062.45
 7.7275   6022.76
 7.73686   5982.33
 7.74622   5927.15
 7.75558   5881.05
 7.76494   5854.01
 7.7743   5848.2
 7.78366   5823.66
 7.79302   5796.5
 7.80238   5766.47
 7.81174   5766.42
 7.8211   5735.87
 7.83046   5701.44
 7.83982   5697.7
 7.84918   5698.59
 7.85854   5663.24
 7.8679   5628.44
 7.87726   5642.43
 7.88662   5626.31
 7.89598   5621.09
 7.90534   5586.83
 7.9147   5587.57
 7.92406   5598.71
 7.93342   5572.4
 7.94278   5563.66
 7.95214   5565.52
 7.9615   5591.42
 7.97086   5571.34
 7.98022   5561.35
 7.98958   5606.84
 7.99894   5644.36
 8.0083   5705.9
 8.01766   5826.68
 8.02702   6085.7
 8.03638   6526.66
 8.04574   7287.87
 8.0551   8457.85
 8.06446   10008.5
 8.07382   11388.5
 8.08318   11819.3
 8.09254   11137
 8.1019   9699.36
 8.11126   8223.71
 8.12062   7083.43
 8.12998   6398.19
 8.13934   6016.99
 8.1487   5753.14
 8.15806   5595.98
 8.16742   5499.74
 8.17678   5425.25
 8.18614   5407.43
 8.1955   5345.71
 8.20486   5306.37
 8.21422   5314.76
 8.22358   5297.46
 8.23294   5297.89
 8.2423   5293.93
 8.25166   5277.38
 8.26102   5263.95
 8.27038   5244.16
 8.27974   5237.36
 8.2891   5243.4
 8.29846   5254.26
 8.30782   5278.63
 8.31718   5307.09
 8.32654   5360.53
 8.3359   5450.5
 8.34526   5606.89
 8.35462   5899.54
 8.36398   6325.82
 8.37334   6959.29
 8.3827   7799.79
 8.39206   8686.95
 8.40142   9570.03
 8.41078   9571.96
 8.42014   8483.32
 8.4295   6930.1
 8.43886   6072.36
 8.44822   5567.1
 8.45758   5355.64
 8.46694   5271.58
 8.4763   5199.43
 8.48566   5154.01
 8.49502   5147.62
 8.50438   5123.86
 8.51374   5103.06
 8.5231   5096.56
 8.53246   5085.44
 8.54182   5067.6
 8.55118   5067.72
 8.56054   5032.34
 8.5699   5017.94
 8.57926   5003.44
 8.58862   5017.16
 8.59798   5007.11
 8.60734   4999.88
 8.6167   4994.16
 8.62606   4985.28
 8.63542   4982.61
 8.64478   4974.28
 8.65414   4972.28
 8.6635   4964.57
 8.67286   4951.4
 8.68222   4929.68
 8.69158   4931.8
 8.70094   4927.49
 8.7103   4927.89
 8.71966   4920.11
 8.72902   4928.75
 8.73838   4917.2
 8.74774   4935.86
 8.7571   4938.68
 8.76646   4955.93
 8.77582   4975.71
 8.78518   5022.31
 8.79454   5105.86
 8.8039   5210.7
 8.81326   5384.86
 8.82262   5638.57
 8.83198   5990.05
 8.84134   6334.31
 8.8507   6523.42
 8.86006   6467.04
 8.86942   6183.58
 8.87878   5823.42
 8.88814   5496
 8.8975   5261.35
 8.90686   5108.81
 8.91622   5017.58
 8.92558   4981.84
 8.93494   4932.74
 8.9443   4932.28
 8.95366   4926.26
 8.96302   4933.28
 8.97238   4972.75
 8.98174   5032.32
 8.9911   5122.66
 9.00046   5269.45
 9.00982   5468.12
 9.01918   5612.37
 9.02854   5673.01
 9.0379   5590.9
 9.04726   5399.42
 9.05662   5190.61
 9.06598   5058.23
 9.07534   4958.33
 9.0847   4892.56
 9.09406   4866.45
 9.10342   4845.26
 9.11278   4830.57
 9.12214   4831.45
 9.1315   4831
 9.14086   4832.62
 9.15022   4832.82
 9.15958   4853.36
 9.16894   4881.13
 9.1783   4909.51
 9.18766   4949.56
 9.19702   5020.06
 9.20638   5162.05
 9.21574   5385.23
 9.2251   5689.94
 9.23446   6130.91
 9.24382   6629.9
 9.25318   6994.04
 9.26254   7052.61
 9.2719   6791.05
 9.28126   6327.65
 9.29062   5883.67
 9.29998   5508.93
 9.30934   5303.01
 9.3187   5179.69
 9.32806   5134.66
 9.33742   5148.79
 9.34678   5208.79
 9.35614   5284.89
 9.3655   5320.33
 9.37486   5287.28
 9.38422   5205.44
 9.39358   5158.7
 9.40294   5125.11
 9.4123   5175.42
 9.42166   5295.69
 9.43102   5481.83
 9.44038   5739.99
 9.44974   5968.45
 9.4591   6087.55
 9.46846   6117.12
 9.47782   6102.05
 9.48718   6097.9
 9.49654   6078.92
 9.5059   6000.44
 9.51526   5830.11
 9.52462   5586.52
 9.53398   5358.12
 9.54334   5212.14
 9.5527   5084.03
 9.56206   5013.32
 9.57142   4958.75
 9.58078   4919.16
 9.59014   4906.26
 9.5995   4903.6
 9.60886   4897.48
 9.61822   4888.98
 9.62758   4894.83
 9.63694   4895.89
 9.6463   4897.48
 9.65566   4898.06
 9.66502   4901.61
 9.67438   4915.54
 9.68374   4918.14
 9.6931   4932.33
 9.70246   4952.17
 9.71182   4978.2
 9.72118   5002.46
 9.73054   5035.06
 9.7399   5123.98
 9.74926   5216.77
 9.75862   5381.94
 9.76798   5639.75
 9.77734   6040.32
 9.7867   6573.35
 9.79606   7127.71
 9.80542   7519.98
 9.81478   7604.88
 9.82414   7479.45
 9.8335   7611.37
 9.84286   8645.94
 9.85222   10650.7
 9.86158   12522.8
 9.87094   11850.2
 9.8803   9318.84
 9.88966   7101.79
 9.89902   5929.68
 9.90838   5425.31
 9.91774   5205.61
 9.9271   5123.85
 9.93646   5080.58
 9.94582   5050.12
 9.95518   5029.07
 9.96454   5034.18
 9.9739   5031.15
 9.98326   5033.26
 9.99262   5033.1
 10.002   5043.15
 10.0113   5038.4
 10.0207   5051.19
 10.0301   5060.79
 10.0394   5087.34
 10.0488   5134.04
 10.0581   5162.62
 10.0675   5176.65
 10.0769   5166.22
 10.0862   5125.1
 10.0956   5085.28
 10.1049   5053.75
 10.1143   5027.22
 10.1237   5009.53
 10.133   5004.77
 10.1424   5013.59
 10.1517   4999.21
 10.1611   5006.81
 10.1705   5013.53
 10.1798   5006.48
 10.1892   4999.38
 10.1985   5022.3
 10.2079   5024.49
 10.2173   5026.34
 10.2266   5020.93
 10.236   5046.32
 10.2453   5071.99
 10.2547   5112.11
 10.2641   5234.67
 10.2734   5551.78
 10.2828   6244.18
 10.2921   7438.3
 10.3015   8352.16
 10.3109   8105.26
 10.3202   6837.72
 10.3296   5923.52
 10.3389   5360.39
 10.3483   5162.11
 10.3577   5081.44
 10.367   5037.91
 10.3764   5024.74
 10.3857   5011.94
 10.3951   5004.69
 10.4045   4999.64
 10.4138   5001.58
 10.4232   4994.01
 10.4325   4981.77
 10.4419   4976.06
 10.4513   4974.57
 10.4606   4972.31
 10.47   4970.27
 10.4793   4983.66
 10.4887   4990.81
 10.4981   4996.45
 10.5074   5003.65
 10.5168   5025.99
 10.5261   5051.16
 10.5355   5073.23
 10.5449   5074.5
 10.5542   5090.3
 10.5636   5054.43
 10.5729   5003.97
 10.5823   4971.35
 10.5917   4950.72
 10.601   4932.9
 10.6104   4922.83
 10.6197   4911.25
 10.6291   4915.63
 10.6385   4916.82
 10.6478   4909.72
 10.6572   4928.76
 10.6665   4952.22
 10.6759   4979.32
 10.6853   5035.79
 10.6946   5111.04
 10.704   5215.89
 10.7133   5305.21
 10.7227   5312.52
 10.7321   5282.95
 10.7414   5194.71
 10.7508   5096.42
 10.7601   5000.92
 10.7695   4933.23
 10.7789   4896.37
 10.7882   4865.41
 10.7976   4846.46
 10.8069   4820.3
 10.8163   4823.03
 10.8257   4819.94
 10.835   4806.61
 10.8444   4807.84
 10.8537   4798.82
 10.8631   4797.96
 10.8725   4783.4
 10.8818   4768.77
 10.8912   4746.19
 10.9005   4741.22
 10.9099   4723.08
 10.9193   4713.95
 10.9286   4706.34
 10.938   4702.93
 10.9473   4702.35
 10.9567   4693.3
 10.9661   4690.19
 10.9754   4689.47
 10.9848   4680.31
 10.9941   4685.55
 11.0035   4688.85
 11.0129   4706.05
 11.0222   4713.4
 11.0316   4717.05
 11.0409   4744.14
 11.0503   4797.81
 11.0597   4868.9
 11.069   4964.93
 11.0784   5125.92
 11.0877   5331.25
 11.0971   5573.06
 11.1065   5735.77
 11.1158   5781.54
 11.1252   5676.61
 11.1345   5466.76
 11.1439   5219.73
 11.1533   5020.89
 11.1626   4870.55
 11.172   4770.14
 11.1813   4713.3
 11.1907   4657.25
 11.2001   4628.09
 11.2094   4613.43
 11.2188   4601.45
 11.2281   4615.69
 11.2375   4611.02
 11.2469   4616.11
 11.2562   4619.9
 11.2656   4643.36
 11.2749   4654
 11.2843   4669.43
 11.2937   4672.15
 11.303   4650.15
 11.3124   4611.2
 11.3217   4558.01
 11.3311   4528.74
 11.3405   4508.25
 11.3498   4483.49
 11.3592   4471.12
 11.3685   4468.44
 11.3779   4463.53
 11.3873   4459.22
 11.3966   4447.56
 11.406   4454.26
 11.4153   4457.72
 11.4247   4456.63
 11.4341   4446.19
 11.4434   4462.74
 11.4528   4490.48
 11.4621   4500.56
 11.4715   4534.36
 11.4809   4580.45
 11.4902   4659.83
 11.4996   4775.57
 11.5089   4893.23
 11.5183   4997.03
 11.5277   5063.5
 11.537   5024.35
 11.5464   4913.44
 11.5557   4772.3
 11.5651   4655.9
 11.5745   4574.64
 11.5838   4500.75
 11.5932   4450.1
 11.6025   4422.63
 11.6119   4397.23
 11.6213   4392.14
 11.6306   4368.72
 11.64   4357.66
 11.6493   4343.94
 11.6587   4331.35
 11.6681   4311.23
 11.6774   4315.65
 11.6868   4308.2
 11.6961   4297.05
 11.7055   4293.83
 11.7149   4288.58
 11.7242   4286.5
 11.7336   4274.99
 11.7429   4275.93
 11.7523   4266.67
 11.7617   4263.99
 11.771   4267.49
 11.7804   4251.77
 11.7897   4247.98
 11.7991   4246.16
 11.8085   4249.67
 11.8178   4242.93
 11.8272   4242.99
 11.8365   4242.82
 11.8459   4249.13
 11.8553   4273.48
 11.8646   4279.44
 11.874   4333.24
 11.8833   4447.88
 11.8927   4650.64
 11.9021   4812.71
 11.9114   4786.09
 11.9208   4620.92
 11.9301   4454.1
 11.9395   4372.01
 11.9489   4339.56
 11.9582   4374.01
 11.9676   4434.67
 11.9769   4501.66
 11.9863   4568.36
 11.9957   4610.73
 12.005   4614.98
 12.0144   4563.79
 12.0237   4479.54
 12.0331   4423.65
 12.0425   4372.79
 12.0518   4361.03
 12.0612   4368.03
 12.0705   4420.32
 12.0799   4504.66
 12.0893   4632.6
 12.0986   4793.09
 12.108   5008.67
 12.1173   5192.59
 12.1267   5304.89
 12.1361   5281.4
 12.1454   5137.95
 12.1548   4911.29
 12.1641   4704.85
 12.1735   4524.12
 12.1829   4387.22
 12.1922   4283.42
 12.2016   4220.12
 12.2109   4173.9
 12.2203   4133.36
 12.2297   4109.55
 12.239   4088.77
 12.2484   4074.13
 12.2577   4058.62
 12.2671   4059.6
 12.2765   4049.49
 12.2858   4052.79
 12.2952   4047.86
 12.3045   4041.36
 12.3139   4054.06
 12.3233   4063.32
 12.3326   4073.61
 12.342   4107.49
 12.3513   4158.1
 12.3607   4223.54
 12.3701   4285.8
 12.3794   4334.61
 12.3888   4372.05
 12.3981   4385.74
 12.4075   4386.27
 12.4169   4410.76
 12.4262   4471.45
 12.4356   4562.47
 12.4449   4651.98
 12.4543   4696.53
 12.4637   4687.34
 12.473   4641.66
 12.4824   4568.71
 12.4917   4457.77
 12.5011   4359.81
 12.5105   4258.04
 12.5198   4172.24
 12.5292   4102.57
 12.5385   4060.78
 12.5479   4018.81
 12.5573   3989.1
 12.5666   3972.96
 12.576   3961.74
 12.5853   3953.71
 12.5947   3947.62
 12.6041   3947.15
 12.6134   3946.8
 12.6228   3957.6
 12.6321   3980.28
 12.6415   3989.29
 12.6509   4030.19
 12.6602   4091.06
 12.6696   4186.33
 12.6789   4327.08
 12.6883   4510.65
 12.6977   4750.01