File: docs/GuiliangJun25_tutorial_output/integrals/MA2-00002_arcsmasked.chi
MA2-00002.tif Azm= 0.00
2-Theta Angle (Degrees)
Intensity
       2500
 1.00702   7900.28
 1.01638   7905.44
 1.02574   7824.09
 1.0351   7739.11
 1.04446   7713.55
 1.05382   7732.59
 1.06318   7658.77
 1.07254   7591.16
 1.0819   7531.69
 1.09126   7496.21
 1.10062   7458.14
 1.10998   7408.7
 1.11934   7414.44
 1.1287   7369.88
 1.13806   7310.23
 1.14742   7290.14
 1.15678   7288.52
 1.16614   7265.38
 1.1755   7217.43
 1.18486   7205.79
 1.19422   7245.77
 1.20358   7189.34
 1.21294   7161.59
 1.2223   7198.61
 1.23166   7151.1
 1.24102   7146.25
 1.25038   7154.46
 1.25974   7154.24
 1.2691   7130.22
 1.27846   7150.89
 1.28782   7128.78
 1.29718   7126.38
 1.30654   7139.08
 1.3159   7164.95
 1.32526   7210.33
 1.33462   7214.59
 1.34398   7176.12
 1.35334   7199.16
 1.3627   7186.47
 1.37206   7175.73
 1.38142   7238.85
 1.39078   7270.66
 1.40014   7305.36
 1.4095   7304.05
 1.41886   7345.07
 1.42822   7395.61
 1.43758   7416.64
 1.44694   7482.14
 1.4563   7512.97
 1.46566   7583.29
 1.47502   7602.93
 1.48438   7650.31
 1.49374   7672.54
 1.5031   7734.06
 1.51246   7734.07
 1.52182   7765.99
 1.53118   7762.43
 1.54054   7758.45
 1.5499   7762.29
 1.55926   7714.49
 1.56862   7731.64
 1.57798   7743.85
 1.58734   7694.16
 1.5967   7687.27
 1.60606   7682.66
 1.61542   7685.45
 1.62478   7675.37
 1.63414   7674.78
 1.6435   7673.11
 1.65286   7695.74
 1.66222   7707.18
 1.67158   7694.94
 1.68094   7698.93
 1.6903   7709.94
 1.69966   7730.44
 1.70902   7734.49
 1.71838   7708.57
 1.72774   7715.83
 1.7371   7766.69
 1.74646   7760.74
 1.75582   7784.96
 1.76518   7775.39
 1.77454   7795.25
 1.7839   7851.86
 1.79326   7831.28
 1.80262   7864.76
 1.81198   7912.78
 1.82134   7942.87
 1.8307   7959.4
 1.84006   8015.37
 1.84942   8040.29
 1.85878   8068.56
 1.86814   8106.14
 1.8775   8147.21
 1.88686   8206.05
 1.89622   8250.15
 1.90558   8271.65
 1.91494   8310.63
 1.9243   8396.3
 1.93366   8428.42
 1.94302   8475.28
 1.95238   8527.76
 1.96174   8633.96
 1.9711   8797.83
 1.98046   8768.57
 1.98982   8724.42
 1.99918   8741.28
 2.00854   8794.89
 2.0179   8818.63
 2.02726   8871.64
 2.03662   8905.82
 2.04598   8965.25
 2.05534   8998.89
 2.0647   9059.75
 2.07406   9108.52
 2.08342   9153.49
 2.09278   9222.92
 2.10214   9328.91
 2.1115   9382.45
 2.12086   9412.67
 2.13022   9443.87
 2.13958   9500.68
 2.14894   9593.53
 2.1583   9687.15
 2.16766   9816.22
 2.17702   9970.09
 2.18638   10214.5
 2.19574   10537.3
 2.2051   11196.9
 2.21446   12433.3
 2.22382   15036.7
 2.23318   19652.7
 2.24254   25124.2
 2.2519   27831.3
 2.26126   25625.1
 2.27062   20146
 2.27998   15549.4
 2.28934   12856.3
 2.2987   11632.5
 2.30806   11147.6
 2.31742   10933.8
 2.32678   10858
 2.33614   10819.4
 2.3455   10852.8
 2.35486   10865.8
 2.36422   10908.8
 2.37358   10956.9
 2.38294   11032.3
 2.3923   11089.6
 2.40166   11150.4
 2.41102   11239.2
 2.42038   11292.9
 2.42974   11337.9
 2.4391   11444.8
 2.44846   11495.6
 2.45782   11582.6
 2.46718   11642.5
 2.47654   11739.4
 2.4859   11789.9
 2.49526   11878
 2.50462   11968.1
 2.51398   12022.4
 2.52334   12084.2
 2.5327   12164.8
 2.54206   12238.4
 2.55142   12307.1
 2.56078   12376.2
 2.57014   12448.5
 2.5795   12520.1
 2.58886   12582.8
 2.59822   12658.3
 2.60758   12685
 2.61694   12732.7
 2.6263   12778.7
 2.63566   12837.5
 2.64502   12874.7
 2.65438   12923.4
 2.66374   12941.8
 2.6731   13026.8
 2.68246   12991.8
 2.69182   13018.7
 2.70118   13062.2
 2.71054   13072.2
 2.7199   13073.4
 2.72926   13069.8
 2.73862   13056.4
 2.74798   13040
 2.75734   13032.3
 2.7667   13039.1
 2.77606   13011.7
 2.78542   12983.1
 2.79478   12983.1
 2.80414   12950.9
 2.8135   12898.4
 2.82286   12885.8
 2.83222   12871.2
 2.84158   12810.2
 2.85094   12804.4
 2.8603   12767.6
 2.86966   12734.9
 2.87902   12709.9
 2.88838   12668.3
 2.89774   12653.1
 2.9071   12596.9
 2.91646   12546.2
 2.92582   12506.5
 2.93518   12462.5
 2.94454   12436.6
 2.9539   12386.6
 2.96326   12342.9
 2.97262   12290.8
 2.98198   12256
 2.99134   12170.8
 3.0007   12141.8
 3.01006   12101.2
 3.01942   12025.4
 3.02878   11994
 3.03814   11908.4
 3.0475   11882.1
 3.05686   11821.3
 3.06622   11748.2
 3.07558   11682.5
 3.08494   11620.9
 3.0943   11574.3
 3.10366   11515.6
 3.11302   11501.1
 3.12238   11460.5
 3.13174   11411.1
 3.1411   11373.3
 3.15046   11327.4
 3.15982   11299.7
 3.16918   11250.1
 3.17854   11208.9
 3.1879   11206.5
 3.19726   11164.8
 3.20662   11113.8
 3.21598   11081.7
 3.22534   11053.5
 3.2347   11024.6
 3.24406   10985.6
 3.25342   10945.9
 3.26278   10951.7
 3.27214   10930.7
 3.2815   10896.9
 3.29086   10881.5
 3.30022   10880.3
 3.30958   10876.4
 3.31894   10834.1
 3.3283   10835
 3.33766   10833.5
 3.34702   10804.8
 3.35638   10776.1
 3.36574   10800.9
 3.3751   10790.9
 3.38446   10780.7
 3.39382   10765.1
 3.40318   10806.3
 3.41254   10814.9
 3.4219   10834.3
 3.43126   10814.7
 3.44062   10849.1
 3.44998   10848.8
 3.45934   10851.3
 3.4687   10844.1
 3.47806   10868.3
 3.48742   10859.9
 3.49678   10841.3
 3.50614   10863.6
 3.5155   10859.3
 3.52486   10808.7
 3.53422   10804.1
 3.54358   10872.8
 3.55294   10856.7
 3.5623   10869.1
 3.57166   10837.8
 3.58102   10881.4
 3.59038   10880.1
 3.59974   10851.4
 3.6091   10882.6
 3.61846   10952.8
 3.62782   10913.2
 3.63718   10925.8
 3.64654   11016.7
 3.6559   11079.3
 3.66526   11045.5
 3.67462   11050
 3.68398   11248.1
 3.69334   11263.6
 3.7027   11259.1
 3.71206   11286.4
 3.72142   11473.3
 3.73078   11363.9
 3.74014   11410.3
 3.7495   11475.9
 3.75886   11496.9
 3.76822   11645
 3.77758   11627.3
 3.78694   11743.6
 3.7963   12008.8
 3.80566   11946.4
 3.81502   11949.8
 3.82438   12450.3
 3.83374   12563.6
 3.8431   12758.8
 3.85246   13287.3
 3.86182   13736.5
 3.87118   14019.4
 3.88054   14652.4
 3.8899   15318.5
 3.89926   16356.3
 3.90862   17341.4
 3.91798   20234.4
 3.92734   25180.5
 3.9367   38774.1
 3.94606   67141.6
 3.95542   72652.3
 3.96478   85432.8
 3.97414   106824
 3.9835   90216.1
 3.99286   67919.2
 4.00222   37013.1
 4.01158   29025.2
 4.02094   20584.7
 4.0303   17345
 4.03966   15499.6
 4.04902   13832.1
 4.05838   13047.9
 4.06774   12655
 4.0771   12231.2
 4.08646   12126.9
 4.09582   11701.9
 4.10518   11457.9
 4.11454   11384.8
 4.1239   10933.8
 4.13326   10645.3
 4.14262   10694.7
 4.15198   10398.5
 4.16134   10167.9
 4.1707   10018.5
 4.18006   9965.42
 4.18942   9772.67
 4.19878   9541.53
 4.20814   9394.85
 4.2175   9383.25
 4.22686   9101.07
 4.23622   8935.87
 4.24558   8929.65
 4.25494   8788.26
 4.2643   8678.54
 4.27366   8549.94
 4.28302   8442.56
 4.29238   8345.81
 4.30174   8264.52
 4.3111   8172.67
 4.32046   8201.01
 4.32982   8101.64
 4.33918   7962.96
 4.34854   7985.59
 4.3579   7931.31
 4.36726   7850.09
 4.37662   7787.34
 4.38598   7745.29
 4.39534   7703.83
 4.4047   7707.78
 4.41406   7616.44
 4.42342   7603.44
 4.43278   7649.03
 4.44214   7624.94
 4.4515   7645.87
 4.46086   7823.39
 4.47022   8171.25
 4.47958   8702.92
 4.48894   9547.39
 4.4983   10369.2
 4.50766   10617.7
 4.51702   10062.9
 4.52638   9103.25
 4.53574   8230.25
 4.5451   7614.46
 4.55446   7295.66
 4.56382   7114.74
 4.57318   7028.62
 4.58254   6969.91
 4.5919   6891.51
 4.60126   6848.55
 4.61062   6820.6
 4.61998   6764.05
 4.62934   6745.1
 4.6387   6726.26
 4.64806   6716.24
 4.65742   6691.69
 4.66678   6746.04
 4.67614   6815.67
 4.6855   6987.55
 4.69486   7419.05
 4.70422   8242.06
 4.71358   9318.54
 4.72294   10168.1
 4.7323   10123.4
 4.74166   9270.14
 4.75102   8240.63
 4.76038   7410.22
 4.76974   6932.67
 4.7791   6695.66
 4.78846   6562.69
 4.79782   6492.6
 4.80718   6448.89
 4.81654   6431.33
 4.8259   6458.02
 4.83526   6483.41
 4.84462   6589.53
 4.85398   6835.07
 4.86334   7364.61
 4.8727   8382.73
 4.88206   10113.5
 4.89142   12084.2
 4.90078   13222.3
 4.91014   12688.7
 4.9195   10904.7
 4.92886   9008.83
 4.93822   7723.87
 4.94758   6954.84
 4.95694   6584.09
 4.9663   6401.95
 4.97566   6279.02
 4.98502   6229.44
 4.99438   6165.33
 5.00374   6140.24
 5.0131   6129.49
 5.02246   6101.78
 5.03182   6089.08
 5.04118   6089.56
 5.05054   6122.96
 5.0599   6161.74
 5.06926   6206.39
 5.07862   6371.33
 5.08798   6629.75
 5.09734   6908.77
 5.1067   7619.58
 5.11606   7583.06
 5.12542   8511.69
 5.13478   10961.3
 5.14414   12869.7
 5.1535   12168.2
 5.16286   9740.14
 5.17222   7653.97
 5.18158   6605.23
 5.19094   6644.79
 5.2003   6452.21
 5.20966   6229.06
 5.21902   6144.7
 5.22838   6042.89
 5.23774   5985.43
 5.2471   5932.63
 5.25646   5888
 5.26582   5884.18
 5.27518   5867.31
 5.28454   5823.87
 5.2939   5826.48
 5.30326   5830.75
 5.31262   5815.11
 5.32198   5800.52
 5.33134   5793.86
 5.3407   5792.39
 5.35006   5778.12
 5.35942   5757.87
 5.36878   5778.14
 5.37814   5794.36
 5.3875   5760.98
 5.39686   5788.19
 5.40622   5809.81
 5.41558   5820.27
 5.42494   5830.97
 5.4343   5883.59
 5.44366   5950.84
 5.45302   6019.43
 5.46238   6105.89
 5.47174   6279.74
 5.4811   6579.78
 5.49046   7063.43
 5.49982   7897.96
 5.50918   9565.74
 5.51854   12637
 5.5279   17710.1
 5.53726   24121.4
 5.54662   29010.8
 5.55598   29132.4
 5.56534   24398.3
 5.5747   18164.8
 5.58406   13250.2
 5.59342   10327.6
 5.60278   9982.74
 5.61214   7772.84
 5.6215   6857.35
 5.63086   6444.46
 5.64022   6146.49
 5.64958   6040.05
 5.65894   5951.53
 5.6683   5894.56
 5.67766   5807.47
 5.68702   5784.79
 5.69638   5778.8
 5.70574   5749.64
 5.7151   5717.68
 5.72446   5723.65
 5.73382   5747.09
 5.74318   5736.17
 5.75254   5749.99
 5.7619   5765.59
 5.77126   5770.6
 5.78062   5739.86
 5.78998   5720.79
 5.79934   5723.03
 5.8087   5737.17
 5.81806   5675.54
 5.82742   5668.42
 5.83678   5677.96
 5.84614   5674
 5.8555   5661.67
 5.86486   5695.18
 5.87422   5724.7
 5.88358   5777.73
 5.89294   5824.66
 5.9023   5937.83
 5.91166   6217.6
 5.92102   6550.8
 5.93038   7100.21
 5.93974   7683.94
 5.9491   7635.72
 5.95846   7072.3
 5.96782   6739.67
 5.97718   6574.47
 5.98654   6497.96
 5.9959   6418.89
 6.00526   6250.74
 6.01462   6099.68
 6.02398   5978.87
 6.03334   5856.1
 6.0427   5794.77
 6.05206   5772.36
 6.06142   5745.29
 6.07078   5716.78
 6.08014   5715.56
 6.0895   5737.5
 6.09886   5724.23
 6.10822   5708.76
 6.11758   5724.05
 6.12694   5722.12
 6.1363   5722.4
 6.14566   5717.93
 6.15502   5735.94
 6.16438   5739.98
 6.17374   5749.16
 6.1831   5741.05
 6.19246   5776.19
 6.20182   5780.43
 6.21118   5771.36
 6.22054   5755.07
 6.2299   5795.24
 6.23926   5801.12
 6.24862   5790.79
 6.25798   5814.96
 6.26734   5825.64
 6.2767   5840.89
 6.28606   5833.04
 6.29542   5850.15
 6.30478   5863.64
 6.31414   5864.49
 6.3235   5855.06
 6.33286   5890.9
 6.34222   5901.21
 6.35158   5910.14
 6.36094   5884.48
 6.3703   5905.33
 6.37966   5934.82
 6.38902   5940.48
 6.39838   5943.54
 6.40774   5971.55
 6.4171   6012.86
 6.42646   6013.78
 6.43582   6025.4
 6.44518   6056.7
 6.45454   6081.25
 6.4639   6109.86
 6.47326   6119.83
 6.48262   6142.91
 6.49198   6199.61
 6.50134   6174.82
 6.5107   6186.95
 6.52006   6239.68
 6.52942   6234.58
 6.53878   6262.63
 6.54814   6290.14
 6.5575   6343.46
 6.56686   6351.86
 6.57622   6387.85
 6.58558   6426.32
 6.59494   6487.97
 6.6043   6555.53
 6.61366   6592.91
 6.62302   6652.24
 6.63238   6729.8
 6.64174   6746.3
 6.6511   6806.03
 6.66046   6913.3
 6.66982   6916.92
 6.67918   6966.77
 6.68854   6984.14
 6.6979   7025.09
 6.70726   7076.95
 6.71662   7136.89
 6.72598   7135.67
 6.73534   7268.55
 6.7447   7320.69
 6.75406   7366.4
 6.76342   7484.4
 6.77278   7647.33
 6.78214   7702.04
 6.7915   7810.13
 6.80086   7913.49
 6.81022   8042.79
 6.81958   8261.43
 6.82894   8536.71
 6.8383   8931.4
 6.84766   10337.4
 6.85702   14084.2
 6.86638   24107.9
 6.87574   30070.1
 6.8851   28033.7
 6.89446   19259
 6.90382   11087.5
 6.91318   9554.73
 6.92254   8922.02
 6.9319   8623.17
 6.94126   8367.19
 6.95062   8415.79
 6.95998   8333.65
 6.96934   8149.43
 6.9787   8331.27
 6.98806   8467.47
 6.99742   8647.68
 7.00678   9155.22
 7.01614   9683.26
 7.0255   10154.6
 7.03486   10321.7
 7.04422   9872.68
 7.05358   9250.68
 7.06294   8713.47
 7.0723   8173.69
 7.08166   7743.17
 7.09102   7466.39
 7.10038   7331.36
 7.10974   7186.26
 7.1191   7119.82
 7.12846   7061.66
 7.13782   7035.94
 7.14718   6989.21
 7.15654   6930.83
 7.1659   6921.04
 7.17526   6919.63
 7.18462   6855.99
 7.19398   6833.21
 7.20334   6784.86
 7.2127   6774.44
 7.22206   6729.72
 7.23142   6697.55
 7.24078   6685.3
 7.25014   6707.84
 7.2595   6692.1
 7.26886   6682.94
 7.27822   6655.37
 7.28758   6658.91
 7.29694   6628.16
 7.3063   6611.39
 7.31566   6622.15
 7.32502   6640.63
 7.33438   6612.03
 7.34374   6623.21
 7.3531   6612.89
 7.36246   6589.48
 7.37182   6585.95
 7.38118   6541.02
 7.39054   6506.64
 7.3999   6480.54
 7.40926   6445.84
 7.41862   6424.7
 7.42798   6412.99
 7.43734   6401.7
 7.4467   6403.18
 7.45606   6413.42
 7.46542   6411.52
 7.47478   6406.08
 7.48414   6410.98
 7.4935   6420.7
 7.50286   6450.87
 7.51222   6484.51
 7.52158   6514.6
 7.53094   6592.82
 7.5403   6696.65
 7.54966   6873.17
 7.55902   7165.19
 7.56838   7665.55
 7.57774   8476.01
 7.5871   9618.7
 7.59646   10963.2
 7.60582   11989.5
 7.61518   12207.9
 7.62454   11440.9
 7.6339   10123.1
 7.64326   8853.44
 7.65262   7907.83
 7.66198   7293.98
 7.67134   6945.14
 7.6807   6734.03
 7.69006   6593.3
 7.69942   6498.69
 7.70878   6445.71
 7.71814   6396.17
 7.7275   6367.06
 7.73686   6331.09
 7.74622   6312.31
 7.75558   6307.25
 7.76494   6290.59
 7.7743   6328.49
 7.78366   6352.62
 7.79302   6357.78
 7.80238   6370.8
 7.81174   6376.08
 7.8211   6399.13
 7.83046   6435.78
 7.83982   6441.63
 7.84918   6447.28
 7.85854   6542.91
 7.8679   6503.01
 7.87726   6528.91
 7.88662   6629.46
 7.89598   6645.5
 7.90534   6826.11
 7.9147   8289.53
 7.92406   8864.07
 7.93342   12809.9
 7.94278   20711.2
 7.95214   12859.5
 7.9615   11519.2
 7.97086   10149.2
 7.98022   7249.13
 7.98958   6893.03
 7.99894   6686.08
 8.0083   6594.88
 8.01766   6709.54
 8.02702   6777.36
 8.03638   7054.44
 8.04574   7564.27
 8.0551   8397.63
 8.06446   9629.14
 8.07382   10965.5
 8.08318   11772.6
 8.09254   11688.3
 8.1019   10779.6
 8.11126   9483.61
 8.12062   8305.89
 8.12998   7443.64
 8.13934   6811.51
 8.1487   6475.2
 8.15806   6226.42
 8.16742   6065.97
 8.17678   5960.78
 8.18614   5876.28
 8.1955   5798.4
 8.20486   5759.21
 8.21422   5712.8
 8.22358   5677.25
 8.23294   5644.87
 8.2423   5642.64
 8.25166   5612.36
 8.26102   5582.99
 8.27038   5545.56
 8.27974   5554.41
 8.2891   5529.81
 8.29846   5537.65
 8.30782   5527.77
 8.31718   5525.15
 8.32654   5571.7
 8.3359   5617.31
 8.34526   5735.44
 8.35462   5961.67
 8.36398   6311.06
 8.37334   6948.15
 8.3827   7991.61
 8.39206   9314.34
 8.40142   10756.6
 8.41078   11037.8
 8.42014   9596.81
 8.4295   7687.94
 8.43886   6552.32
 8.44822   5889.61
 8.45758   5625.87
 8.46694   5452.01
 8.4763   5367.02
 8.48566   5316.77
 8.49502   5278.49
 8.50438   5243.79
 8.51374   5217.42
 8.5231   5196.35
 8.53246   5174.24
 8.54182   5176.64
 8.55118   5161.1
 8.56054   5136.02
 8.5699   5117.74
 8.57926   5099.36
 8.58862   5092.94
 8.59798   5087.52
 8.60734   5100.23
 8.6167   5098.86
 8.62606   5085.45
 8.63542   5072.78
 8.64478   5068.8
 8.65414   5073.88
 8.6635   5058.91
 8.67286   5058.8
 8.68222   5042.05
 8.69158   5042.39
 8.70094   5047.9
 8.7103   5040.33
 8.71966   5043.69
 8.72902   5058.91
 8.73838   5052.3
 8.74774   5047.49
 8.7571   5074.1
 8.76646   5100.75
 8.77582   5111.51
 8.78518   5176.03
 8.79454   5277.04
 8.8039   5405.61
 8.81326   5606.66
 8.82262   5918.27
 8.83198   6318.37
 8.84134   6762.37
 8.8507   7373.21
 8.86006   7928.41
 8.86942   8466.04
 8.87878   7045.33
 8.88814   6282.22
 8.8975   5701.5
 8.90686   5325.51
 8.91622   5175.61
 8.92558   5124.64
 8.93494   5083.83
 8.9443   5084.59
 8.95366   5081.02
 8.96302   5102.78
 8.97238   5156.69
 8.98174   5234.53
 8.9911   5334.53
 9.00046   5475.58
 9.00982   5596.54
 9.01918   5685.89
 9.02854   5659.94
 9.0379   5534.52
 9.04726   5363.89
 9.05662   5198.08
 9.06598   5072.72
 9.07534   4995.57
 9.0847   4945.44
 9.09406   4927.12
 9.10342   4906.69
 9.11278   4907.55
 9.12214   4888.92
 9.1315   4890.24
 9.14086   4899.89
 9.15022   4908.92
 9.15958   4921.54
 9.16894   4928.82
 9.1783   4959.97
 9.18766   4983.81
 9.19702   5061.33
 9.20638   5162.66
 9.21574   5341.43
 9.2251   5627.99
 9.23446   6005.96
 9.24382   6464.9
 9.25318   6877.3
 9.26254   7039.11
 9.2719   6904.53
 9.28126   6538.47
 9.29062   6094.49
 9.29998   5701.48
 9.30934   5432.15
 9.3187   5268.18
 9.32806   5196.64
 9.33742   5171.53
 9.34678   5205.49
 9.35614   5277.31
 9.3655   5333.85
 9.37486   5332.49
 9.38422   5313.34
 9.39358   5259.26
 9.40294   5235.08
 9.4123   5243.86
 9.42166   5310.61
 9.43102   5471.04
 9.44038   5688.27
 9.44974   5936.15
 9.4591   6139.3
 9.46846   6265.39
 9.47782   6328.69
 9.48718   6318.13
 9.49654   6239.46
 9.5059   6083.19
 9.51526   5862.79
 9.52462   5605.5
 9.53398   5376.65
 9.54334   5234.37
 9.5527   5139.48
 9.56206   5058.84
 9.57142   5015.74
 9.58078   4988.39
 9.59014   4978.88
 9.5995   4972.5
 9.60886   4960.28
 9.61822   4962.45
 9.62758   4962.75
 9.63694   4969.9
 9.6463   4977.67
 9.65566   4990.25
 9.66502   5004.11
 9.67438   5049.19
 9.68374   5114.75
 9.6931   5389.27
 9.70246   6112.79
 9.71182   6578.9
 9.72118   6804.41
 9.73054   6011.57
 9.7399   5699.81
 9.74926   5412.59
 9.75862   5426.54
 9.76798   5607.31
 9.77734   5921.94
 9.7867   6353.46
 9.79606   6854.51
 9.80542   7321.84
 9.81478   7578.13
 9.82414   7667.76
 9.8335   7929.23
 9.84286   8812.11
 9.85222   10138.2
 9.86158   11687
 9.87094   11070.5
 9.8803   8941.04
 9.88966   6964.47
 9.89902   6028.11
 9.90838   5481.23
 9.91774   5269.06
 9.9271   5181.02
 9.93646   5123.24
 9.94582   5096.84
 9.95518   5086.9
 9.96454   5081.09
 9.9739   5078.99
 9.98326   5072.85
 9.99262   5077.85
 10.002   5084.62
 10.0113   5083.66
 10.0207   5092.32
 10.0301   5094.05
 10.0394   5122.62
 10.0488   5143.84
 10.0581   5188.18
 10.0675   5205.88
 10.0769   5212.63
 10.0862   5194.82
 10.0956   5159.98
 10.1049   5124.08
 10.1143   5090.63
 10.1237   5068.5
 10.133   5055.16
 10.1424   5067.95
 10.1517   5043.97
 10.1611   5049.39
 10.1705   5063.64
 10.1798   5058.72
 10.1892   5038.35
 10.1985   5062.25
 10.2079   5070.44
 10.2173   5076.65
 10.2266   5072.87
 10.236   5092.54
 10.2453   5109.47
 10.2547   5163.15
 10.2641   5264.93
 10.2734   5458.5
 10.2828   5361.01
 10.2921   5631.81
 10.3015   5803.78
 10.3109   5761.62
 10.3202   5586.62
 10.3296   5758.33
 10.3389   5371.05
 10.3483   5231.13
 10.3577   5155.96
 10.367   5150.09
 10.3764   5108.64
 10.3857   5095.74
 10.3951   5102.82
 10.4045   5125.67
 10.4138   5094.81
 10.4232   5094.18
 10.4325   5092.53
 10.4419   5145.06
 10.4513   5130.94
 10.4606   5182.95
 10.47   5259.23
 10.4793   5440.32
 10.4887   5654.31
 10.4981   6006.72
 10.5074   5890.3
 10.5168   5592.57
 10.5261   5343.27
 10.5355   5264.28
 10.5449   5213.58
 10.5542   5224.39
 10.5636   5178.05
 10.5729   5121.33
 10.5823   5071.4
 10.5917   5068.68
 10.601   5039.91
 10.6104   5012.48
 10.6197   4997.39
 10.6291   5000.82
 10.6385   4992.58
 10.6478   4978.57
 10.6572   4996.07
 10.6665   5012.61
 10.6759   5042.19
 10.6853   5076.61
 10.6946   5152.76
 10.704   5243.05
 10.7133   5317.88
 10.7227   5368.92
 10.7321   5356.37
 10.7414   5288.71
 10.7508   5198.1
 10.7601   5101.71
 10.7695   5027.66
 10.7789   4977.13
 10.7882   4931.65
 10.7976   4905.94
 10.8069   4879.76
 10.8163   4873.25
 10.8257   4864.27
 10.835   4867.33
 10.8444   4861.03
 10.8537   4833.22
 10.8631   4830.18
 10.8725   4819.47
 10.8818   4797.71
 10.8912   4790.8
 10.9005   4790.54
 10.9099   4780.52
 10.9193   4758.87
 10.9286   4740.67
 10.938   4738.22
 10.9473   4731.27
 10.9567   4723.53
 10.9661   4736.36
 10.9754   4720.65
 10.9848   4723.97
 10.9941   4715.75
 11.0035   4711.35
 11.0129   4730.04
 11.0222   4737.59
 11.0316   4754.68
 11.0409   4777.71
 11.0503   4812.34
 11.0597   4870.74
 11.069   4974.3
 11.0784   5087.82
 11.0877   5282.51
 11.0971   5520.38
 11.1065   5697.05
 11.1158   5791.17
 11.1252   5739.45
 11.1345   5570.72
 11.1439   5348.32
 11.1533   5128.44
 11.1626   4959.15
 11.172   4861.74
 11.1813   4778.18
 11.1907   4727.37
 11.2001   4687.74
 11.2094   4783.02
 11.2188   4972.33
 11.2281   4689.18
 11.2375   4690.69
 11.2469   4712.48
 11.2562   4699.55
 11.2656   4692.05
 11.2749   4682.98
 11.2843   4690.2
 11.2937   4684.23
 11.303   4658.2
 11.3124   4618.18
 11.3217   4587.56
 11.3311   4559.87
 11.3405   4536.92
 11.3498   4515.16
 11.3592   4508.49
 11.3685   4504.68
 11.3779   4508.16
 11.3873   4493.85
 11.3966   4492.46
 11.406   4492.48
 11.4153   4498.21
 11.4247   4500.61
 11.4341   4503.92
 11.4434   4519.31
 11.4528   4546.73
 11.4621   4566.87
 11.4715   4611.04
 11.4809   4682.52
 11.4902   4769.12
 11.4996   4873.25
 11.5089   4962.54
 11.5183   5031.91
 11.5277   5048.75
 11.537   4987.11
 11.5464   4873.59
 11.5557   4747.58
 11.5651   4651.33
 11.5745   4573.6
 11.5838   4511.37
 11.5932   4473.22
 11.6025   4450.88
 11.6119   4440.58
 11.6213   4424.99
 11.6306   4403.49
 11.64   4393.58
 11.6493   4386.77
 11.6587   4361.08
 11.6681   4356.91
 11.6774   4347.69
 11.6868   4345.95
 11.6961   4331.64
 11.7055   4324.42
 11.7149   4320.68
 11.7242   4323.82
 11.7336   4319.51
 11.7429   4308.77
 11.7523   4304.79
 11.7617   4306.38
 11.771   4303.03
 11.7804   4290.72
 11.7897   4289.15
 11.7991   4287.58
 11.8085   4289.64
 11.8178   4283.26
 11.8272   4285.68
 11.8365   4282.04
 11.8459   4288.16
 11.8553   4297.66
 11.8646   4317.56
 11.874   4355.65
 11.8833   4388.88
 11.8927   4450.79
 11.9021   4524.75
 11.9114   4613.96
 11.9208   4472.28
 11.9301   4416.78
 11.9395   4414.11
 11.9489   4385.89
 11.9582   4403.56
 11.9676   4461.15
 11.9769   4528.47
 11.9863   4597.47
 11.9957   4645.46
 12.005   4643.3
 12.0144   4613.87
 12.0237   4538.1
 12.0331   4477.44
 12.0425   4432.96
 12.0518   4424.86
 12.0612   4431.63
 12.0705   4466.9
 12.0799   4566.06
 12.0893   4693.42
 12.0986   4863.72
 12.108   5050.86
 12.1173   5231.57
 12.1267   5320.59
 12.1361   5275.32
 12.1454   5134.12
 12.1548   4920.19
 12.1641   4720.15
 12.1735   4547.02
 12.1829   4403.55
 12.1922   4325.44
 12.2016   4248.48
 12.2109   4203.32
 12.2203   4170.35
 12.2297   4142.45
 12.239   4118.84
 12.2484   4102.52
 12.2577   4106.95
 12.2671   4084.03
 12.2765   4087.02
 12.2858   4084.25
 12.2952   4080.44
 12.3045   4077.07
 12.3139   4080.99
 12.3233   4086.04
 12.3326   4103.56
 12.342   4120.7
 12.3513   4162.65
 12.3607   4201.19
 12.3701   4272.03
 12.3794   4325.16
 12.3888   4363.98
 12.3981   4394.31
 12.4075   4412.54
 12.4169   4432.19
 12.4262   4471.57
 12.4356   4547.21
 12.4449   4622.79
 12.4543   4689
 12.4637   4724.18
 12.473   4718.82
 12.4824   4670.94
 12.4917   4590.51
 12.5011   4487.83
 12.5105   4369.55
 12.5198   4268.29
 12.5292   4186.83
 12.5385   4137.16
 12.5479   4109.63
 12.5573   4062.92
 12.5666   4042.49
 12.576   4032.26
 12.5853   4010.9
 12.5947   3997.33
 12.6041   3985.47
 12.6134   3989.71
 12.6228   3979.28
 12.6321   4002.67
 12.6415   4007.93
 12.6509   4040.61
 12.6602   4089.47
 12.6696   4151.89
 12.6789   4264.79
 12.6883   4402.99
 12.6977   4596.7