File: docs/GuiliangJun25_tutorial_output/integrals/MA2-00001_om.chi
MA2-00001.tif Azm= 0.00
2-Theta Angle (Degrees)
Intensity
       2500
 1.00702   7861.1
 1.01638   7820.48
 1.02574   7751.65
 1.0351   7700.2
 1.04446   7627.58
 1.05382   7614.05
 1.06318   7550.14
 1.07254   7488.65
 1.0819   7448.85
 1.09126   7442.38
 1.10062   7415.67
 1.10998   7337.99
 1.11934   7364.91
 1.1287   7283.67
 1.13806   7239.28
 1.14742   7218.72
 1.15678   7215.36
 1.16614   7174.2
 1.1755   7186.84
 1.18486   7154.43
 1.19422   7152.75
 1.20358   7149.6
 1.21294   7121.49
 1.2223   7097.95
 1.23166   7096.43
 1.24102   7094.55
 1.25038   7053.82
 1.25974   7125.43
 1.2691   7086.34
 1.27846   7087.57
 1.28782   7062.68
 1.29718   7105.53
 1.30654   7117.26
 1.3159   7074.61
 1.32526   7086.18
 1.33462   7101.17
 1.34398   7098.65
 1.35334   7106.49
 1.3627   7151.91
 1.37206   7138.38
 1.38142   7179.96
 1.39078   7186.88
 1.40014   7213.47
 1.4095   7266.64
 1.41886   7262.2
 1.42822   7354.63
 1.43758   7351.62
 1.44694   7394.47
 1.4563   7456.45
 1.46566   7492.01
 1.47502   7559.01
 1.48438   7598.02
 1.49374   7647.2
 1.5031   7661.82
 1.51246   7695.29
 1.52182   7710.9
 1.53118   7705.16
 1.54054   7706.62
 1.5499   7695.91
 1.55926   7672.19
 1.56862   7636.18
 1.57798   7653.78
 1.58734   7649.16
 1.5967   7658.8
 1.60606   7632.65
 1.61542   7621.68
 1.62478   7609.03
 1.63414   7635.74
 1.6435   7610.39
 1.65286   7617.63
 1.66222   7622.46
 1.67158   7614.19
 1.68094   7633.09
 1.6903   7635.09
 1.69966   7646.92
 1.70902   7670.73
 1.71838   7652.38
 1.72774   7655.18
 1.7371   7667.58
 1.74646   7693.83
 1.75582   7686.12
 1.76518   7702.28
 1.77454   7730.94
 1.7839   7757.01
 1.79326   7764.96
 1.80262   7816.07
 1.81198   7840.1
 1.82134   7862.06
 1.8307   7909.3
 1.84006   7914.05
 1.84942   7959.65
 1.85878   8007.29
 1.86814   8026.77
 1.8775   8086.78
 1.88686   8158.54
 1.89622   8184.33
 1.90558   8235.94
 1.91494   8269.62
 1.9243   8326.25
 1.93366   8376.44
 1.94302   8406.47
 1.95238   8439.58
 1.96174   8510.22
 1.9711   8553.43
 1.98046   8579.64
 1.98982   8626.32
 1.99918   8668.01
 2.00854   8718.63
 2.0179   8752.29
 2.02726   8810.56
 2.03662   8853.38
 2.04598   8860.75
 2.05534   8946.7
 2.0647   8980.51
 2.07406   9025.82
 2.08342   9066.9
 2.09278   9139.51
 2.10214   9239.9
 2.1115   9295.46
 2.12086   9318.46
 2.13022   9391.72
 2.13958   9448.13
 2.14894   9521.74
 2.1583   9609.89
 2.16766   9710.49
 2.17702   9861.57
 2.18638   10069.9
 2.19574   10341.1
 2.2051   10876.7
 2.21446   11876.9
 2.22382   14047.3
 2.23318   18159.4
 2.24254   23760.3
 2.2519   27472.4
 2.26126   26176.3
 2.27062   20917.2
 2.27998   15990.1
 2.28934   13044.7
 2.2987   11695.9
 2.30806   11110.5
 2.31742   10888.5
 2.32678   10752.7
 2.33614   10739.3
 2.3455   10770.4
 2.35486   10797.5
 2.36422   10816.9
 2.37358   10879.4
 2.38294   10923.9
 2.3923   10997.3
 2.40166   11093.9
 2.41102   11110
 2.42038   11181.8
 2.42974   11251.3
 2.4391   11344.6
 2.44846   11406.1
 2.45782   11463.1
 2.46718   11541.8
 2.47654   11622.5
 2.4859   11723.1
 2.49526   11793.7
 2.50462   11855.6
 2.51398   11926.1
 2.52334   12013.3
 2.5327   12077.2
 2.54206   12193.9
 2.55142   12202.1
 2.56078   12291.9
 2.57014   12338.7
 2.5795   12406.6
 2.58886   12502.1
 2.59822   12531.7
 2.60758   12574.4
 2.61694   12628.9
 2.6263   12659.4
 2.63566   12713
 2.64502   12750.3
 2.65438   12799.2
 2.66374   12817.3
 2.6731   12832.2
 2.68246   12866.1
 2.69182   12887.7
 2.70118   12902.9
 2.71054   12960.2
 2.7199   12939
 2.72926   12945.6
 2.73862   12938.5
 2.74798   12932.3
 2.75734   12927.2
 2.7667   12909.5
 2.77606   12906.6
 2.78542   12862.4
 2.79478   12826.2
 2.80414   12799.5
 2.8135   12791.4
 2.82286   12777.4
 2.83222   12739.2
 2.84158   12720.8
 2.85094   12679.9
 2.8603   12647.4
 2.86966   12620.5
 2.87902   12591.8
 2.88838   12552.3
 2.89774   12502
 2.9071   12462.9
 2.91646   12435.1
 2.92582   12383.5
 2.93518   12345.7
 2.94454   12328.7
 2.9539   12275.3
 2.96326   12239.4
 2.97262   12172.9
 2.98198   12125.8
 2.99134   12053.5
 3.0007   12011
 3.01006   11956.8
 3.01942   11913.9
 3.02878   11887.1
 3.03814   11822.8
 3.0475   11739.5
 3.05686   11682.2
 3.06622   11600.2
 3.07558   11572.9
 3.08494   11508.7
 3.0943   11468.9
 3.10366   11402.8
 3.11302   11369.4
 3.12238   11329.8
 3.13174   11279.5
 3.1411   11265.6
 3.15046   11226.5
 3.15982   11182.4
 3.16918   11132.8
 3.17854   11091.7
 3.1879   11080.8
 3.19726   11061.5
 3.20662   11003.9
 3.21598   10967.6
 3.22534   10941
 3.2347   10925.4
 3.24406   10893.4
 3.25342   10848
 3.26278   10848.2
 3.27214   10810.9
 3.2815   10772.4
 3.29086   10758.5
 3.30022   10761.4
 3.30958   10744
 3.31894   10728.9
 3.3283   10731
 3.33766   10717.3
 3.34702   10683.6
 3.35638   10660
 3.36574   10687.6
 3.3751   10686.8
 3.38446   10672.8
 3.39382   10681.4
 3.40318   10684.2
 3.41254   10689.3
 3.4219   10674.4
 3.43126   10694
 3.44062   10701.9
 3.44998   10714.2
 3.45934   10687.3
 3.4687   10703.2
 3.47806   10710
 3.48742   10704.9
 3.49678   10677.6
 3.50614   10694.7
 3.5155   10706
 3.52486   10686.8
 3.53422   10682.5
 3.54358   10709.4
 3.55294   10715.1
 3.5623   10673.2
 3.57166   10679.1
 3.58102   10702.7
 3.59038   10652.8
 3.59974   10654.1
 3.6091   10677.7
 3.61846   10705.2
 3.62782   10611.9
 3.63718   10579.5
 3.64654   10624.7
 3.6559   10634.7
 3.66526   10547.6
 3.67462   10475.3
 3.68398   10527.3
 3.69334   10479
 3.7027   10380.3
 3.71206   10323.6
 3.72142   10321.4
 3.73078   10215.6
 3.74014   10086.3
 3.7495   10060.8
 3.75886   10026.6
 3.76822   9883.66
 3.77758   9754.96
 3.78694   9781.68
 3.7963   9738.65
 3.80566   9526.96
 3.81502   9478.89
 3.82438   9587.58
 3.83374   9472.94
 3.8431   9335.79
 3.85246   9366.42
 3.86182   9323.29
 3.87118   9232.28
 3.88054   9093.51
 3.8899   9061.59
 3.89926   9031.14
 3.90862   8908.22
 3.91798   8853.9
 3.92734   8852.6
 3.9367   8778.85
 3.94606   8695.39
 3.95542   8706.16
 3.96478   8593.21
 3.97414   8581.61
 3.9835   8545.47
 3.99286   8468.76
 4.00222   8498.38
 4.01158   8428.68
 4.02094   8322.31
 4.0303   8354.16
 4.03966   8364.6
 4.04902   8232.6
 4.05838   8198.36
 4.06774   8255.22
 4.0771   8191.52
 4.08646   8093.41
 4.09582   8055.94
 4.10518   8058.15
 4.11454   8055.09
 4.1239   7920.1
 4.13326   7929.1
 4.14262   7934.11
 4.15198   7902.43
 4.16134   7792.39
 4.1707   7784.83
 4.18006   7797.9
 4.18942   7803.09
 4.19878   7702.13
 4.20814   7754.06
 4.2175   7858.57
 4.22686   7717
 4.23622   7619.28
 4.24558   7712.84
 4.25494   7740.12
 4.2643   7693.54
 4.27366   7665.21
 4.28302   7692.6
 4.29238   7691.26
 4.30174   7616.27
 4.3111   7630.98
 4.32046   7641.9
 4.32982   7641.61
 4.33918   7579.24
 4.34854   7606.7
 4.3579   7640.13
 4.36726   7613.87
 4.37662   7568.23
 4.38598   7558.94
 4.39534   7581.85
 4.4047   7594.29
 4.41406   7528.38
 4.42342   7519.83
 4.43278   7555.06
 4.44214   7523
 4.4515   7522.11
 4.46086   7641.39
 4.47022   7867.11
 4.47958   8305.8
 4.48894   9119.77
 4.4983   10144.8
 4.50766   10727.4
 4.51702   10362.7
 4.52638   9404.79
 4.53574   8393.33
 4.5451   7678.16
 4.55446   7290.58
 4.56382   7084.36
 4.57318   6984.63
 4.58254   6898.99
 4.5919   6827.28
 4.60126   6770.44
 4.61062   6774.89
 4.61998   6711.1
 4.62934   6684.81
 4.6387   6690.95
 4.64806   6675.11
 4.65742   6633.71
 4.66678   6690.93
 4.67614   6773.05
 4.6855   7011.44
 4.69486   7538.33
 4.70422   8495.29
 4.71358   9643.1
 4.72294   10281.2
 4.7323   9865.86
 4.74166   8754.1
 4.75102   7727.72
 4.76038   7048.22
 4.76974   6716.25
 4.7791   6538.22
 4.78846   6450.58
 4.79782   6405.47
 4.80718   6378.5
 4.81654   6354.25
 4.8259   6400.95
 4.83526   6444.9
 4.84462   6595.09
 4.85398   6886.01
 4.86334   7521.11
 4.8727   8766.82
 4.88206   10736.6
 4.89142   12719.8
 4.90078   13438.4
 4.91014   12322.9
 4.9195   10219.1
 4.92886   8390.55
 4.93822   7278.5
 4.94758   6716.53
 4.95694   6423.58
 4.9663   6299.45
 4.97566   6188.82
 4.98502   6154.03
 4.99438   6118.03
 5.00374   6091.13
 5.0131   6058.09
 5.02246   6059.06
 5.03182   6040.08
 5.04118   6033.18
 5.05054   6056.76
 5.0599   6094.13
 5.06926   6159.28
 5.07862   6324.47
 5.08798   6548.33
 5.09734   6810.24
 5.1067   7568.67
 5.11606   7473.98
 5.12542   8310.58
 5.13478   10879.6
 5.14414   12762.3
 5.1535   11877.7
 5.16286   9670.69
 5.17222   7623.36
 5.18158   6566.15
 5.19094   6570.37
 5.2003   6373.42
 5.20966   6164.38
 5.21902   6115.26
 5.22838   5985.03
 5.23774   5934.48
 5.2471   5865.89
 5.25646   5828.97
 5.26582   5801.61
 5.27518   5765.35
 5.28454   5764.42
 5.2939   5761.61
 5.30326   5733.81
 5.31262   5718.67
 5.32198   5713.59
 5.33134   5696.93
 5.3407   5688.08
 5.35006   5678.65
 5.35942   5677.67
 5.36878   5687.29
 5.37814   5688.37
 5.3875   5692.64
 5.39686   5701.38
 5.40622   5742.78
 5.41558   5736.57
 5.42494   5768.98
 5.4343   5814.76
 5.44366   5874.5
 5.45302   5959.43
 5.46238   6070.07
 5.47174   6255.94
 5.4811   6586.63
 5.49046   7103.51
 5.49982   8034.53
 5.50918   9896.02
 5.51854   13296.9
 5.5279   18779.3
 5.53726   25332.7
 5.54662   29689.6
 5.55598   28727.3
 5.56534   23207.2
 5.5747   16865.5
 5.58406   12093.3
 5.59342   9308.72
 5.60278   7781.04
 5.61214   6966.2
 5.6215   6486.32
 5.63086   6203.69
 5.64022   6035.4
 5.64958   5918.15
 5.65894   5846.66
 5.6683   5794.21
 5.67766   5743.95
 5.68702   5716.54
 5.69638   5681.98
 5.70574   5654.54
 5.7151   5644.18
 5.72446   5651.03
 5.73382   5648.51
 5.74318   5664.04
 5.75254   5679.44
 5.7619   5690.57
 5.77126   5678.96
 5.78062   5680.65
 5.78998   5654.19
 5.79934   5654.04
 5.8087   5651.01
 5.81806   5623.84
 5.82742   5616
 5.83678   5614.77
 5.84614   5612.61
 5.8555   5618.43
 5.86486   5651.55
 5.87422   5669.66
 5.88358   5720.02
 5.89294   5763.22
 5.9023   5873.48
 5.91166   6162.69
 5.92102   6478.07
 5.93038   6736.25
 5.93974   7515.07
 5.9491   7474.11
 5.95846   6841.5
 5.96782   6668.74
 5.97718   6535.93
 5.98654   6429.97
 5.9959   6352.69
 6.00526   6180.17
 6.01462   5994.22
 6.02398   5882.18
 6.03334   5781.38
 6.0427   5733.15
 6.05206   5711.98
 6.06142   5716.69
 6.07078   5673.43
 6.08014   5685.88
 6.0895   5699.68
 6.09886   5679.25
 6.10822   5656.1
 6.11758   5670.24
 6.12694   5667.17
 6.1363   5674.2
 6.14566   5662.41
 6.15502   5676.13
 6.16438   5692.88
 6.17374   5698.15
 6.1831   5695.08
 6.19246   5707.14
 6.20182   5732.53
 6.21118   5730.74
 6.22054   5728.23
 6.2299   5755.56
 6.23926   5762.7
 6.24862   5756.79
 6.25798   5753.51
 6.26734   5775.59
 6.2767   5792.65
 6.28606   5783.14
 6.29542   5794.42
 6.30478   5814.3
 6.31414   5814.08
 6.3235   5799.39
 6.33286   5828.28
 6.34222   5842.1
 6.35158   5845.27
 6.36094   5841.48
 6.3703   5844.42
 6.37966   5838.82
 6.38902   5844.7
 6.39838   5851.56
 6.40774   5877.29
 6.4171   5907.35
 6.42646   5880.6
 6.43582   5899.21
 6.44518   5930.16
 6.45454   5906.77
 6.4639   5914.33
 6.47326   5913.91
 6.48262   5915.15
 6.49198   5934.79
 6.50134   5925.66
 6.5107   5949.39
 6.52006   5984.41
 6.52942   5965.82
 6.53878   5978.27
 6.54814   6007.76
 6.5575   6024.19
 6.56686   6039.31
 6.57622   6037.99
 6.58558   6061.66
 6.59494   6095.29
 6.6043   6105.99
 6.61366   6095.51
 6.62302   6133.35
 6.63238   6147.7
 6.64174   6143.07
 6.6511   6166.75
 6.66046   6214.94
 6.66982   6226.93
 6.67918   6250.42
 6.68854   6264.3
 6.6979   6306.14
 6.70726   6335.3
 6.71662   6354.86
 6.72598   6395.12
 6.73534   6448.1
 6.7447   6475.95
 6.75406   6480.12
 6.76342   6524.12
 6.77278   6571.49
 6.78214   6538.79
 6.7915   6547.15
 6.80086   6527.15
 6.81022   6515.14
 6.81958   6530.93
 6.82894   6523.63
 6.8383   6546.44
 6.84766   6597.34
 6.85702   6558.34
 6.86638   6579.26
 6.87574   6592.24
 6.8851   6614.17
 6.89446   6610.9
 6.90382   6654.47
 6.91318   6705.72
 6.92254   6740.99
 6.9319   6760.18
 6.94126   6750.46
 6.95062   6834.86
 6.95998   6900.41
 6.96934   6950.41
 6.9787   7108.1
 6.98806   7313.69
 6.99742   7611.98
 7.00678   8118.1
 7.01614   8771.51
 7.0255   9368.33
 7.03486   9573.63
 7.04422   9293.87
 7.05358   8686.76
 7.06294   8144.18
 7.0723   7665.2
 7.08166   7267.5
 7.09102   6993.83
 7.10038   6845.38
 7.10974   6717.13
 7.1191   6662.56
 7.12846   6637.95
 7.13782   6573.46
 7.14718   6563.07
 7.15654   6536.98
 7.1659   6491.69
 7.17526   6515.52
 7.18462   6491.62
 7.19398   6471.47
 7.20334   6468.74
 7.2127   6482.94
 7.22206   6451.7
 7.23142   6438.71
 7.24078   6437.92
 7.25014   6470.52
 7.2595   6463.35
 7.26886   6465.88
 7.27822   6462.36
 7.28758   6440.44
 7.29694   6438.32
 7.3063   6420.5
 7.31566   6429.19
 7.32502   6451.81
 7.33438   6450.19
 7.34374   6472.47
 7.3531   6475.77
 7.36246   6478.36
 7.37182   6478.26
 7.38118   6454.99
 7.39054   6437.15
 7.3999   6425.34
 7.40926   6387.45
 7.41862   6366.43
 7.42798   6354.3
 7.43734   6358.62
 7.4467   6347.23
 7.45606   6357.22
 7.46542   6362.34
 7.47478   6362.6
 7.48414   6373.92
 7.4935   6364.04
 7.50286   6391.26
 7.51222   6423.31
 7.52158   6453.19
 7.53094   6507.59
 7.5403   6596.92
 7.54966   6760.35
 7.55902   7035.33
 7.56838   7471.82
 7.57774   8210.3
 7.5871   9325.18
 7.59646   10709.2
 7.60582   11906
 7.61518   12287.8
 7.62454   11612.2
 7.6339   10273.5
 7.64326   8893.34
 7.65262   7904.84
 7.66198   7229.59
 7.67134   6740.51
 7.6807   6482.4
 7.69006   6321.56
 7.69942   6196.01
 7.70878   6134.5
 7.71814   6062.45
 7.7275   6022.76
 7.73686   5980.88
 7.74622   5924.06
 7.75558   5876.3
 7.76494   5852.39
 7.7743   5848.2
 7.78366   5823.66
 7.79302   5796.5
 7.80238   5764.9
 7.81174   5766.42
 7.8211   5734.38
 7.83046   5701.44
 7.83982   5697.7
 7.84918   5698.59
 7.85854   5661.77
 7.8679   5625.29
 7.87726   5642.43
 7.88662   5626.31
 7.89598   5619.67
 7.90534   5585.14
 7.9147   5584.36
 7.92406   5595.1
 7.93342   5570.82
 7.94278   5563.66
 7.95214   5565.52
 7.9615   5591.42
 7.97086   5571.34
 7.98022   5559.8
 7.98958   5606.84
 7.99894   5644.36
 8.0083   5705.9
 8.01766   5823.68
 8.02702   6085.7
 8.03638   6526.66
 8.04574   7282.81
 8.0551   8457.85
 8.06446   10008.5
 8.07382   11388.5
 8.08318   11808.8
 8.09254   11137
 8.1019   9699.36
 8.11126   8223.71
 8.12062   7082.04
 8.12998   6398.19
 8.13934   6016.99
 8.1487   5751.94
 8.15806   5595.98
 8.16742   5499.74
 8.17678   5423.93
 8.18614   5407.43
 8.1955   5345.71
 8.20486   5305.09
 8.21422   5314.76
 8.22358   5294.85
 8.23294   5296.57
 8.2423   5293.93
 8.25166   5276.15
 8.26102   5263.95
 8.27038   5244.16
 8.27974   5234.79
 8.2891   5242.2
 8.29846   5254.26
 8.30782   5278.63
 8.31718   5305.88
 8.32654   5360.53
 8.3359   5449.06
 8.34526   5605.92
 8.35462   5899.54
 8.36398   6325.82
 8.37334   6949.43
 8.3827   7719.16
 8.39206   7978.17
 8.40142   8340.21
 8.41078   8141.68
 8.42014   7414.33
 8.4295   6445.91
 8.43886   6042.81
 8.44822   5561.14
 8.45758   5355.64
 8.46694   5271.58
 8.4763   5196.29
 8.48566   5153.15
 8.49502   5147.62
 8.50438   5122.88
 8.51374   5102.12
 8.5231   5093.54
 8.53246   5083.42
 8.54182   5064.21
 8.55118   5064.69
 8.56054   5031.4
 8.5699   5017.94
 8.57926   5000.98
 8.58862   5017.16
 8.59798   5006.24
 8.60734   4999.88
 8.6167   4993.32
 8.62606   4981.46
 8.63542   4981.74
 8.64478   4972.47
 8.65414   4970.68
 8.6635   4962.23
 8.67286   4950.58
 8.68222   4929.68
 8.69158   4931.5
 8.70094   4924.1
 8.7103   4926.31
 8.71966   4919.24
 8.72902   4927.23
 8.73838   4916.35
 8.74774   4935.09
 8.7571   4937.09
 8.76646   4955.93
 8.77582   4974.99
 8.78518   5022.31
 8.79454   5103.51
 8.8039   5210.7
 8.81326   5384.86
 8.82262   5634
 8.83198   5990.05
 8.84134   6334.31
 8.8507   6522.71
 8.86006   6467.04
 8.86942   6183.58
 8.87878   5823.42
 8.88814   5494.54
 8.8975   5261.35
 8.90686   5107.43
 8.91622   5017.58
 8.92558   4981.21
 8.93494   4931.34
 8.9443   4930.52
 8.95366   4926.35
 8.96302   4932.08
 8.97238   4972.23
 8.98174   5032.96
 8.9911   5122.69
 9.00046   5268.51
 9.00982   5467.42
 9.01918   5611.68
 9.02854   5671.36
 9.0379   5589.58
 9.04726   5399.42
 9.05662   5188.67
 9.06598   5057.62
 9.07534   4958.44
 9.0847   4892
 9.09406   4865.83
 9.10342   4845.84
 9.11278   4830.57
 9.12214   4830.93
 9.1315   4831.6
 9.14086   4830.41
 9.15022   4832.23
 9.15958   4852.84
 9.16894   4881.13
 9.1783   4910.02
 9.18766   4948.24
 9.19702   5015.19
 9.20638   5162.63
 9.21574   5385.23
 9.2251   5682.5
 9.23446   6130.91
 9.24382   6629.9
 9.25318   6992.06
 9.26254   7049.97
 9.2719   6790.36
 9.28126   6326.04
 9.29062   5883.63
 9.29998   5509.55
 9.30934   5301
 9.3187   5177.91
 9.32806   5134.98
 9.33742   5148.27
 9.34678   5206.26
 9.35614   5284.01
 9.3655   5319.28
 9.37486   5284.67
 9.38422   5204.07
 9.39358   5158.18
 9.40294   5126.04
 9.4123   5174.74
 9.42166   5294.73
 9.43102   5482.96
 9.44038   5739.99
 9.44974   5967.92
 9.4591   6086.97
 9.46846   6114.31
 9.47782   6102
 9.48718   6098.9
 9.49654   6078.41
 9.5059   5998.08
 9.51526   5830.11
 9.52462   5586.52
 9.53398   5356.49
 9.54334   5210.33
 9.5527   5084.5
 9.56206   5010.67
 9.57142   4956.26
 9.58078   4918.49
 9.59014   4905.78
 9.5995   4903.05
 9.60886   4893.88
 9.61822   4885.84
 9.62758   4892.31
 9.63694   4891.74
 9.6463   4890.28
 9.65566   4894.39
 9.66502   4895.37
 9.67438   4906.2
 9.68374   4906.8
 9.6931   4918.9
 9.70246   4927.53
 9.71182   4946.86
 9.72118   4974.3
 9.73054   5003.45
 9.7399   5089.56
 9.74926   5190.75
 9.75862   5374.49
 9.76798   5633.92
 9.77734   6036.71
 9.7867   6573.35
 9.79606   7127.71
 9.80542   7519.15
 9.81478   7604.88
 9.82414   7473.19
 9.8335   7575.26
 9.84286   8382.68
 9.85222   9108.88
 9.86158   10825.1
 9.87094   10369.1
 9.8803   8344.5
 9.88966   6672.78
 9.89902   5907.81
 9.90838   5407.53
 9.91774   5205.61
 9.9271   5123.85
 9.93646   5079.84
 9.94582   5049.46
 9.95518   5027.7
 9.96454   5033.48
 9.9739   5030.53
 9.98326   5033.26
 9.99262   5033.1
 10.002   5042.48
 10.0113   5037.03
 10.0207   5050.43
 10.0301   5060.79
 10.0394   5087.34
 10.0488   5133.35
 10.0581   5160.65
 10.0675   5173.42
 10.0769   5165.59
 10.0862   5122.05
 10.0956   5082.64
 10.1049   5051.8
 10.1143   5025.43
 10.1237   5009.6
 10.133   5003.46
 10.1424   5011.68
 10.1517   4999.21
 10.1611   5000.59
 10.1705   5011.73
 10.1798   5003.32
 10.1892   4997.94
 10.1985   5018.97
 10.2079   5024.49
 10.2173   5022.31
 10.2266   5019.49
 10.236   5044.11
 10.2453   5066.1
 10.2547   5096.32
 10.2641   5217.33
 10.2734   5404.11
 10.2828   5331.67
 10.2921   5579.39
 10.3015   5742.22
 10.3109   5702.78
 10.3202   5537.39
 10.3296   5735.09
 10.3389   5309.25
 10.3483   5159.73
 10.3577   5080.89
 10.367   5037.1
 10.3764   5024.74
 10.3857   5010.34
 10.3951   5004.69
 10.4045   4998.08
 10.4138   5001.58
 10.4232   4994.01
 10.4325   4981.77
 10.4419   4976.06
 10.4513   4972.68
 10.4606   4972.31
 10.47   4970.27
 10.4793   4981.84
 10.4887   4988.46
 10.4981   4990.83
 10.5074   5001.16
 10.5168   5024.05
 10.5261   5048.85
 10.5355   5073.23
 10.5449   5074.5
 10.5542   5090.3
 10.5636   5054.43
 10.5729   5003.26
 10.5823   4971.35
 10.5917   4950.05
 10.601   4932.18
 10.6104   4922.83
 10.6197   4910.47
 10.6291   4914.9
 10.6385   4914.94
 10.6478   4906.94
 10.6572   4928.05
 10.6665   4952.16
 10.6759   4979.32
 10.6853   5034.58
 10.6946   5110.31
 10.704   5214.65
 10.7133   5304.63
 10.7227   5311.32
 10.7321   5282.24
 10.7414   5192.88
 10.7508   5093.86
 10.7601   5000.18
 10.7695   4930.09
 10.7789   4895.78
 10.7882   4864.76
 10.7976   4844.11
 10.8069   4818.53
 10.8163   4820.78
 10.8257   4818.9
 10.835   4807.52
 10.8444   4806.7
 10.8537   4798.2
 10.8631   4797.43
 10.8725   4780.03
 10.8818   4768.22
 10.8912   4742.59
 10.9005   4740.24
 10.9099   4721.99
 10.9193   4712.92
 10.9286   4704.83
 10.938   4701.96
 10.9473   4702.35
 10.9567   4692.73
 10.9661   4690.66
 10.9754   4688.99
 10.9848   4679.84
 10.9941   4686.58
 11.0035   4687.7
 11.0129   4705.1
 11.0222   4712.57
 11.0316   4716.66
 11.0409   4744.56
 11.0503   4798.69
 11.0597   4867.62
 11.069   4965.39
 11.0784   5125.41
 11.0877   5328.49
 11.0971   5573.03
 11.1065   5734.83
 11.1158   5776.96
 11.1252   5675.79
 11.1345   5467.5
 11.1439   5217.54
 11.1533   5020.89
 11.1626   4871.33
 11.172   4768.6
 11.1813   4712.31
 11.1907   4656.9
 11.2001   4628.81
 11.2094   4614.18
 11.2188   4601.6
 11.2281   4614.87
 11.2375   4610.23
 11.2469   4616.02
 11.2562   4619.95
 11.2656   4642.92
 11.2749   4654.36
 11.2843   4668.72
 11.2937   4671.14
 11.303   4648.49
 11.3124   4611.18
 11.3217   4556.7
 11.3311   4529.53
 11.3405   4509.74
 11.3498   4482.68
 11.3592   4472.26
 11.3685   4467.78
 11.3779   4463.55
 11.3873   4460.83
 11.3966   4448.35
 11.406   4453.91
 11.4153   4458.62
 11.4247   4456.34
 11.4341   4446.31
 11.4434   4463.94
 11.4528   4490.98
 11.4621   4500.46
 11.4715   4534.31
 11.4809   4580.08
 11.4902   4657.14
 11.4996   4776.42
 11.5089   4892.55
 11.5183   4997.19
 11.5277   5063.41
 11.537   5024.74
 11.5464   4911.93
 11.5557   4771.75
 11.5651   4660.13
 11.5745   4572.17
 11.5838   4501.58
 11.5932   4449.75
 11.6025   4422.68
 11.6119   4397.19
 11.6213   4391.26
 11.6306   4367.51
 11.64   4356.89
 11.6493   4342.31
 11.6587   4331.33
 11.6681   4309.99
 11.6774   4315.56
 11.6868   4307.04
 11.6961   4297.53
 11.7055   4293.08
 11.7149   4288.22
 11.7242   4285.31
 11.7336   4274.61
 11.7429   4274.17
 11.7523   4265.03
 11.7617   4263.08
 11.771   4266.52
 11.7804   4251.85
 11.7897   4247.98
 11.7991   4244.12
 11.8085   4248.87
 11.8178   4242.93
 11.8272   4241.74
 11.8365   4241.19
 11.8459   4248.28
 11.8553   4272.98
 11.8646   4277.77
 11.874   4317.26
 11.8833   4339.34
 11.8927   4387.3
 11.9021   4438.55
 11.9114   4437.62
 11.9208   4393.04
 11.9301   4366.81
 11.9395   4367.97
 11.9489   4339.1
 11.9582   4373.56
 11.9676   4434.67
 11.9769   4501.64
 11.9863   4565.73
 11.9957   4610.79
 12.005   4614.11
 12.0144   4563.4
 12.0237   4477.96
 12.0331   4423.24
 12.0425   4371.35
 12.0518   4359.78
 12.0612   4366.9
 12.0705   4420.72
 12.0799   4504.64
 12.0893   4631.57
 12.0986   4793.13
 12.108   5007.76
 12.1173   5191.16
 12.1267   5303.38
 12.1361   5280.62
 12.1454   5136.7
 12.1548   4910.19
 12.1641   4704.85
 12.1735   4521.48
 12.1829   4386.08
 12.1922   4285.18
 12.2016   4218.34
 12.2109   4173.42
 12.2203   4134.45
 12.2297   4108.18
 12.239   4088.81
 12.2484   4073.11
 12.2577   4057.27
 12.2671   4057.76
 12.2765   4048.8
 12.2858   4052
 12.2952   4046.54
 12.3045   4039.43
 12.3139   4053.1
 12.3233   4062.2
 12.3326   4073.34
 12.342   4106.85
 12.3513   4157.35
 12.3607   4222.81
 12.3701   4284.85
 12.3794   4335.26
 12.3888   4371.08
 12.3981   4384.81
 12.4075   4383.73
 12.4169   4410.31
 12.4262   4472.11
 12.4356   4559.92
 12.4449   4648.6
 12.4543   4694.49
 12.4637   4687.01
 12.473   4642.25
 12.4824   4567.51
 12.4917   4458.65
 12.5011   4357.77
 12.5105   4258.1
 12.5198   4173.25
 12.5292   4101.55
 12.5385   4059.91
 12.5479   4018.46
 12.5573   3987.87
 12.5666   3971.53
 12.576   3962.09
 12.5853   3953.84
 12.5947   3946.99
 12.6041   3945.46
 12.6134   3945.27
 12.6228   3956.09
 12.6321   3979.09
 12.6415   3987.34
 12.6509   4031.06
 12.6602   4090.08
 12.6696   4184.37
 12.6789   4328.12
 12.6883   4510.4
 12.6977   4746.97