File: docs/GuiliangJun25_tutorial_output/integrals/MA2-00002_om.chi
MA2-00002.tif Azm= 0.00
2-Theta Angle (Degrees)
Intensity
       2500
 1.00702   7894.27
 1.01638   7905.44
 1.02574   7824.09
 1.0351   7739.11
 1.04446   7718.16
 1.05382   7732.59
 1.06318   7658.77
 1.07254   7591.16
 1.0819   7531.69
 1.09126   7496.21
 1.10062   7454.22
 1.10998   7408.7
 1.11934   7414.91
 1.1287   7374.4
 1.13806   7310.23
 1.14742   7290.14
 1.15678   7288.52
 1.16614   7265.38
 1.1755   7217.43
 1.18486   7205.79
 1.19422   7245.77
 1.20358   7189.34
 1.21294   7161.59
 1.2223   7189.72
 1.23166   7151.1
 1.24102   7146.25
 1.25038   7154.46
 1.25974   7154.24
 1.2691   7130.22
 1.27846   7150.89
 1.28782   7128.65
 1.29718   7130.91
 1.30654   7127.47
 1.3159   7155.84
 1.32526   7158.8
 1.33462   7145.97
 1.34398   7168.15
 1.35334   7199.16
 1.3627   7185.29
 1.37206   7187.08
 1.38142   7237.61
 1.39078   7267.26
 1.40014   7303.43
 1.4095   7300.08
 1.41886   7341.06
 1.42822   7395.61
 1.43758   7410.21
 1.44694   7468.01
 1.4563   7512.97
 1.46566   7583.29
 1.47502   7596.74
 1.48438   7645.76
 1.49374   7660.03
 1.5031   7726.39
 1.51246   7736.75
 1.52182   7761.57
 1.53118   7747.73
 1.54054   7752.49
 1.5499   7757.48
 1.55926   7714.49
 1.56862   7734.74
 1.57798   7743.85
 1.58734   7694.16
 1.5967   7680.15
 1.60606   7673.64
 1.61542   7676.71
 1.62478   7672.28
 1.63414   7669.53
 1.6435   7666.05
 1.65286   7688.16
 1.66222   7696.43
 1.67158   7694.2
 1.68094   7697.67
 1.6903   7708.76
 1.69966   7723.93
 1.70902   7736.99
 1.71838   7708.57
 1.72774   7716.2
 1.7371   7769.66
 1.74646   7758.05
 1.75582   7787.52
 1.76518   7780.69
 1.77454   7790.57
 1.7839   7848.91
 1.79326   7831.06
 1.80262   7864.42
 1.81198   7909.09
 1.82134   7936.64
 1.8307   7956.79
 1.84006   8012.01
 1.84942   8033.96
 1.85878   8061.34
 1.86814   8103.81
 1.8775   8143.62
 1.88686   8203.53
 1.89622   8253.01
 1.90558   8273.77
 1.91494   8313.28
 1.9243   8398.65
 1.93366   8421.24
 1.94302   8471.88
 1.95238   8503.02
 1.96174   8573.33
 1.9711   8588.3
 1.98046   8660.7
 1.98982   8710.65
 1.99918   8736.05
 2.00854   8791.1
 2.0179   8812.64
 2.02726   8871.04
 2.03662   8901.06
 2.04598   8959.82
 2.05534   8991.11
 2.0647   9051.1
 2.07406   9101.87
 2.08342   9148.45
 2.09278   9217.81
 2.10214   9319.92
 2.1115   9380.52
 2.12086   9414.6
 2.13022   9437.57
 2.13958   9496.31
 2.14894   9587.88
 2.1583   9681.93
 2.16766   9814.38
 2.17702   9965.86
 2.18638   10214.5
 2.19574   10537.3
 2.2051   11187.9
 2.21446   12433.3
 2.22382   15036.7
 2.23318   19678.1
 2.24254   25124.2
 2.2519   27831.3
 2.26126   25625.1
 2.27062   20146
 2.27998   15549.4
 2.28934   12847.4
 2.2987   11624.2
 2.30806   11143.7
 2.31742   10931.6
 2.32678   10858.6
 2.33614   10811.1
 2.3455   10848.9
 2.35486   10861.6
 2.36422   10907.9
 2.37358   10949.2
 2.38294   11025.3
 2.3923   11086.9
 2.40166   11148.2
 2.41102   11233.4
 2.42038   11292.2
 2.42974   11337.9
 2.4391   11448.2
 2.44846   11491.7
 2.45782   11579.9
 2.46718   11639.1
 2.47654   11730.4
 2.4859   11785
 2.49526   11869.2
 2.50462   11957.8
 2.51398   12016.9
 2.52334   12078.2
 2.5327   12165.8
 2.54206   12232.4
 2.55142   12302.5
 2.56078   12373.6
 2.57014   12445.1
 2.5795   12511.6
 2.58886   12586.6
 2.59822   12654.8
 2.60758   12683.2
 2.61694   12729.7
 2.6263   12775.5
 2.63566   12834.7
 2.64502   12860.5
 2.65438   12904.5
 2.66374   12909.7
 2.6731   12956.8
 2.68246   12952.6
 2.69182   12977
 2.70118   13019.8
 2.71054   13041.5
 2.7199   13037.9
 2.72926   13034.2
 2.73862   13022.1
 2.74798   13011
 2.75734   13003.2
 2.7667   13009.9
 2.77606   12984.1
 2.78542   12960.8
 2.79478   12960.3
 2.80414   12925.4
 2.8135   12879.8
 2.82286   12855.9
 2.83222   12851.4
 2.84158   12794.8
 2.85094   12781.3
 2.8603   12746.3
 2.86966   12716.2
 2.87902   12689.1
 2.88838   12653.4
 2.89774   12631.3
 2.9071   12578.7
 2.91646   12529.3
 2.92582   12485.1
 2.93518   12443.1
 2.94454   12413.3
 2.9539   12367.3
 2.96326   12326
 2.97262   12270.8
 2.98198   12233.5
 2.99134   12169.7
 3.0007   12119.4
 3.01006   12081.5
 3.01942   12008.1
 3.02878   11972.2
 3.03814   11891.2
 3.0475   11858.8
 3.05686   11800.6
 3.06622   11724.2
 3.07558   11667
 3.08494   11600.8
 3.0943   11558.4
 3.10366   11504.8
 3.11302   11487.1
 3.12238   11447.1
 3.13174   11398.3
 3.1411   11356
 3.15046   11314.3
 3.15982   11289.9
 3.16918   11227.6
 3.17854   11198.5
 3.1879   11194.1
 3.19726   11141.5
 3.20662   11100.9
 3.21598   11067.6
 3.22534   11035.2
 3.2347   11009
 3.24406   10968
 3.25342   10934.2
 3.26278   10936.1
 3.27214   10914
 3.2815   10873.4
 3.29086   10859
 3.30022   10862.7
 3.30958   10854.4
 3.31894   10814.1
 3.3283   10816
 3.33766   10818.9
 3.34702   10787.5
 3.35638   10763.4
 3.36574   10772.3
 3.3751   10762.6
 3.38446   10753.4
 3.39382   10736.9
 3.40318   10769.1
 3.41254   10767.6
 3.4219   10762
 3.43126   10750
 3.44062   10784.3
 3.44998   10787.5
 3.45934   10789.8
 3.4687   10777.4
 3.47806   10787.7
 3.48742   10784.9
 3.49678   10767
 3.50614   10781.1
 3.5155   10780.1
 3.52486   10738.9
 3.53422   10723.6
 3.54358   10785.2
 3.55294   10766.9
 3.5623   10761.8
 3.57166   10737.1
 3.58102   10773.4
 3.59038   10764
 3.59974   10729.2
 3.6091   10725.1
 3.61846   10762.8
 3.62782   10707.3
 3.63718   10679.1
 3.64654   10693.1
 3.6559   10716.4
 3.66526   10614.6
 3.67462   10533.6
 3.68398   10603.8
 3.69334   10559.3
 3.7027   10425.8
 3.71206   10403.7
 3.72142   10375.8
 3.73078   10259.8
 3.74014   10147.6
 3.7495   10112.9
 3.75886   10068.1
 3.76822   9957.06
 3.77758   9803.95
 3.78694   9813.7
 3.7963   9820.85
 3.80566   9624.78
 3.81502   9567.85
 3.82438   9646.04
 3.83374   9563.29
 3.8431   9379.6
 3.85246   9408.49
 3.86182   9381.38
 3.87118   9262.07
 3.88054   9165.06
 3.8899   9145.38
 3.89926   9102.73
 3.90862   8977.82
 3.91798   8919.57
 3.92734   8930.51
 3.9367   8842.26
 3.94606   8769.94
 3.95542   8785.94
 3.96478   8710.66
 3.97414   8650.23
 3.9835   8626.07
 3.99286   8551.2
 4.00222   8538.72
 4.01158   8471.16
 4.02094   8406.83
 4.0303   8393.11
 4.03966   8413.4
 4.04902   8303.42
 4.05838   8260.82
 4.06774   8282.84
 4.0771   8217.77
 4.08646   8150.41
 4.09582   8086.84
 4.10518   8105.08
 4.11454   8112.13
 4.1239   7971.71
 4.13326   7964.89
 4.14262   7993.11
 4.15198   7939.25
 4.16134   7848.53
 4.1707   7838.21
 4.18006   7867.45
 4.18942   7870.6
 4.19878   7767.41
 4.20814   7777.34
 4.2175   7892.96
 4.22686   7781.4
 4.23622   7679.89
 4.24558   7734.71
 4.25494   7759.73
 4.2643   7742.67
 4.27366   7697.93
 4.28302   7738.61
 4.29238   7727.36
 4.30174   7666.55
 4.3111   7691.24
 4.32046   7685.81
 4.32982   7724.11
 4.33918   7664.6
 4.34854   7670.98
 4.3579   7678.92
 4.36726   7638.71
 4.37662   7595.22
 4.38598   7637.31
 4.39534   7625.27
 4.4047   7661.3
 4.41406   7594.91
 4.42342   7588.3
 4.43278   7645.09
 4.44214   7621.22
 4.4515   7638.23
 4.46086   7819.88
 4.47022   8167.63
 4.47958   8702.92
 4.48894   9547.39
 4.4983   10369.2
 4.50766   10617.7
 4.51702   10062.9
 4.52638   9097.63
 4.53574   8230.25
 4.5451   7614.46
 4.55446   7295.66
 4.56382   7114.74
 4.57318   7028.62
 4.58254   6964.41
 4.5919   6891.51
 4.60126   6848.55
 4.61062   6820.6
 4.61998   6764.05
 4.62934   6745.1
 4.6387   6726.26
 4.64806   6716.24
 4.65742   6691.69
 4.66678   6746.04
 4.67614   6815.67
 4.6855   6987.55
 4.69486   7419.05
 4.70422   8242.06
 4.71358   9318.54
 4.72294   10168.1
 4.7323   10123.4
 4.74166   9270.14
 4.75102   8237.29
 4.76038   7410.22
 4.76974   6932.67
 4.7791   6692.72
 4.78846   6560.87
 4.79782   6492.6
 4.80718   6448.89
 4.81654   6431.33
 4.8259   6455.25
 4.83526   6483.41
 4.84462   6589.53
 4.85398   6835.07
 4.86334   7364.61
 4.8727   8376.05
 4.88206   10113.5
 4.89142   12084.2
 4.90078   13222.3
 4.91014   12688.7
 4.9195   10904.7
 4.92886   9008.83
 4.93822   7723.87
 4.94758   6954.84
 4.95694   6580.17
 4.9663   6400.64
 4.97566   6277.7
 4.98502   6225.54
 4.99438   6163.25
 5.00374   6133.45
 5.0131   6129.49
 5.02246   6099.49
 5.03182   6087.62
 5.04118   6089.42
 5.05054   6122.96
 5.0599   6159.33
 5.06926   6206.39
 5.07862   6371.33
 5.08798   6627.21
 5.09734   6849.15
 5.1067   7619.58
 5.11606   7583.06
 5.12542   8419.89
 5.13478   10961.3
 5.14414   12869.7
 5.1535   11912.9
 5.16286   9717.53
 5.17222   7653.97
 5.18158   6605.23
 5.19094   6644.79
 5.2003   6452.21
 5.20966   6227.4
 5.21902   6136.31
 5.22838   6026.21
 5.23774   5957.86
 5.2471   5919.14
 5.25646   5862.29
 5.26582   5847.69
 5.27518   5827.28
 5.28454   5804.3
 5.2939   5804.48
 5.30326   5780.52
 5.31262   5774.26
 5.32198   5782.56
 5.33134   5769.37
 5.3407   5740.06
 5.35006   5746.35
 5.35942   5740.63
 5.36878   5745.99
 5.37814   5741.33
 5.3875   5737.62
 5.39686   5761.68
 5.40622   5772.92
 5.41558   5769.99
 5.42494   5811.6
 5.4343   5863.76
 5.44366   5909.15
 5.45302   5977.74
 5.46238   6094.28
 5.47174   6262.37
 5.4811   6576.04
 5.49046   7053.39
 5.49982   7892.77
 5.50918   9565.74
 5.51854   12637
 5.5279   17710.1
 5.53726   24121.4
 5.54662   29010.8
 5.55598   29132.4
 5.56534   24398.3
 5.5747   18109.6
 5.58406   13012.9
 5.59342   9875.15
 5.60278   8105.02
 5.61214   7163.81
 5.6215   6637.38
 5.63086   6321.24
 5.64022   6115.81
 5.64958   6013.7
 5.65894   5904.96
 5.6683   5848.69
 5.67766   5793.44
 5.68702   5760.11
 5.69638   5733.7
 5.70574   5713.65
 5.7151   5701.45
 5.72446   5704.1
 5.73382   5701.21
 5.74318   5708.96
 5.75254   5738.12
 5.7619   5739.98
 5.77126   5727.94
 5.78062   5717.23
 5.78998   5708.8
 5.79934   5700.44
 5.8087   5698.48
 5.81806   5665.79
 5.82742   5656.26
 5.83678   5650.34
 5.84614   5639.62
 5.8555   5650.29
 5.86486   5682.51
 5.87422   5700.63
 5.88358   5758.61
 5.89294   5818.8
 5.9023   5928.31
 5.91166   6217.6
 5.92102   6545.45
 5.93038   6821.43
 5.93974   7580.02
 5.9491   7522.11
 5.95846   6913.65
 5.96782   6739.67
 5.97718   6574.47
 5.98654   6488.93
 5.9959   6411.04
 6.00526   6242.21
 6.01462   6084.18
 6.02398   5958.93
 6.03334   5831.34
 6.0427   5772
 6.05206   5757.86
 6.06142   5742.99
 6.07078   5711.77
 6.08014   5712.57
 6.0895   5734.05
 6.09886   5722.06
 6.10822   5708.76
 6.11758   5721.56
 6.12694   5721.38
 6.1363   5721.4
 6.14566   5715.48
 6.15502   5734.78
 6.16438   5738.71
 6.17374   5749.16
 6.1831   5737.16
 6.19246   5773.55
 6.20182   5779.12
 6.21118   5771.36
 6.22054   5755.07
 6.2299   5793.85
 6.23926   5798.54
 6.24862   5789.58
 6.25798   5811.79
 6.26734   5825.64
 6.2767   5840.89
 6.28606   5833.04
 6.29542   5845.74
 6.30478   5853.33
 6.31414   5850.98
 6.3235   5845.89
 6.33286   5880.19
 6.34222   5887
 6.35158   5888.15
 6.36094   5860.22
 6.3703   5880.24
 6.37966   5897.91
 6.38902   5891.86
 6.39838   5900.19
 6.40774   5911.9
 6.4171   5948.12
 6.42646   5942.39
 6.43582   5936.85
 6.44518   5962.25
 6.45454   5973.02
 6.4639   5981.94
 6.47326   5966.28
 6.48262   5966.9
 6.49198   5998.49
 6.50134   5975.86
 6.5107   5987.18
 6.52006   6029.53
 6.52942   6007.36
 6.53878   6022.22
 6.54814   6056.35
 6.5575   6093.1
 6.56686   6100.55
 6.57622   6124.32
 6.58558   6145.64
 6.59494   6162.67
 6.6043   6169.26
 6.61366   6182.23
 6.62302   6190.04
 6.63238   6208.29
 6.64174   6193.46
 6.6511   6218.93
 6.66046   6278.21
 6.66982   6283.67
 6.67918   6305.03
 6.68854   6309.07
 6.6979   6343.44
 6.70726   6393.9
 6.71662   6429.68
 6.72598   6456.21
 6.73534   6525.49
 6.7447   6556.64
 6.75406   6571.07
 6.76342   6578.14
 6.77278   6657.87
 6.78214   6599.34
 6.7915   6595.05
 6.80086   6575.04
 6.81022   6578.41
 6.81958   6591.18
 6.82894   6584.92
 6.8383   6597.96
 6.84766   6641.33
 6.85702   6615.87
 6.86638   6621.23
 6.87574   6630.27
 6.8851   6654.44
 6.89446   6684.24
 6.90382   6725.39
 6.91318   6730.89
 6.92254   6798.26
 6.9319   6808.66
 6.94126   6819.1
 6.95062   6911.91
 6.95998   6976.46
 6.96934   7011.98
 6.9787   7173.2
 6.98806   7400.04
 6.99742   7728.8
 7.00678   8260.1
 7.01614   8916.19
 7.0255   9491.07
 7.03486   9664.91
 7.04422   9345.47
 7.05358   8748.39
 7.06294   8218.14
 7.0723   7746.69
 7.08166   7342.57
 7.09102   7061.56
 7.10038   6919.42
 7.10974   6789.88
 7.1191   6711.48
 7.12846   6670.31
 7.13782   6647.95
 7.14718   6619.64
 7.15654   6585.2
 7.1659   6566.7
 7.17526   6589.59
 7.18462   6554.33
 7.19398   6543.5
 7.20334   6528.29
 7.2127   6532.22
 7.22206   6490.25
 7.23142   6492.73
 7.24078   6490.41
 7.25014   6511.2
 7.2595   6518.8
 7.26886   6523.83
 7.27822   6502.52
 7.28758   6510.28
 7.29694   6483.43
 7.3063   6481.98
 7.31566   6495.48
 7.32502   6526.15
 7.33438   6509.33
 7.34374   6525.45
 7.3531   6536.7
 7.36246   6526.86
 7.37182   6525.44
 7.38118   6511.53
 7.39054   6482.2
 7.3999   6458.87
 7.40926   6426.37
 7.41862   6411.35
 7.42798   6405.54
 7.43734   6395.56
 7.4467   6402.61
 7.45606   6412.29
 7.46542   6410.56
 7.47478   6406.08
 7.48414   6410.98
 7.4935   6420.7
 7.50286   6450.32
 7.51222   6482.48
 7.52158   6514.6
 7.53094   6592.82
 7.5403   6691.36
 7.54966   6872.11
 7.55902   7154.46
 7.56838   7651.18
 7.57774   8468.84
 7.5871   9618.7
 7.59646   10961.7
 7.60582   11965.1
 7.61518   12182.7
 7.62454   11408.8
 7.6339   10090.6
 7.64326   8776.71
 7.65262   7832.93
 7.66198   7202.73
 7.67134   6739.77
 7.6807   6516.24
 7.69006   6363.63
 7.69942   6246.11
 7.70878   6182.65
 7.71814   6121.31
 7.7275   6068.75
 7.73686   6028.12
 7.74622   5985.34
 7.75558   5939.9
 7.76494   5917.2
 7.7743   5902.85
 7.78366   5878.84
 7.79302   5853.77
 7.80238   5833.78
 7.81174   5823.2
 7.8211   5782.6
 7.83046   5749.11
 7.83982   5745.71
 7.84918   5738.28
 7.85854   5705.16
 7.8679   5677.65
 7.87726   5685.43
 7.88662   5680.7
 7.89598   5654.21
 7.90534   5634.99
 7.9147   5622.25
 7.92406   5624.16
 7.93342   5620.03
 7.94278   5596.88
 7.95214   5614.65
 7.9615   5621.83
 7.97086   5607.83
 7.98022   5602.67
 7.98958   5643.84
 7.99894   5683.59
 8.0083   5695.49
 8.01766   5787.44
 8.02702   5998.6
 8.03638   6335.22
 8.04574   6926.37
 8.0551   7855.67
 8.06446   9147.04
 8.07382   10507.4
 8.08318   11297.9
 8.09254   11222.9
 8.1019   10386.8
 8.11126   9122.58
 8.12062   7911.48
 8.12998   7056.93
 8.13934   6454.37
 8.1487   6026.52
 8.15806   5798.09
 8.16742   5642.52
 8.17678   5537.67
 8.18614   5484.38
 8.1955   5415.45
 8.20486   5386.49
 8.21422   5385.28
 8.22358   5362.81
 8.23294   5332.1
 8.2423   5343.63
 8.25166   5327.87
 8.26102   5312.55
 8.27038   5285.82
 8.27974   5301.91
 8.2891   5288.79
 8.29846   5319
 8.30782   5313.53
 8.31718   5327.01
 8.32654   5402.72
 8.3359   5454.9
 8.34526   5591.74
 8.35462   5835.01
 8.36398   6180.64
 8.37334   6744.56
 8.3827   7532.18
 8.39206   7912.78
 8.40142   8437.42
 8.41078   8394.17
 8.42014   7730.74
 8.4295   6774.25
 8.43886   6311.25
 8.44822   5748.67
 8.45758   5529.23
 8.46694   5372.6
 8.4763   5295.5
 8.48566   5247.75
 8.49502   5215.73
 8.50438   5187.91
 8.51374   5163.47
 8.5231   5140.06
 8.53246   5118.52
 8.54182   5120.8
 8.55118   5107.2
 8.56054   5092.33
 8.5699   5075.26
 8.57926   5050.9
 8.58862   5045.27
 8.59798   5039.23
 8.60734   5045.54
 8.6167   5045.79
 8.62606   5034.3
 8.63542   5023.82
 8.64478   5014.35
 8.65414   5024.44
 8.6635   5007.85
 8.67286   5009.28
 8.68222   4982.74
 8.69158   4982.73
 8.70094   4983.92
 8.7103   4973.56
 8.71966   4967.27
 8.72902   4988.28
 8.73838   4982.89
 8.74774   4974.58
 8.7571   4993.02
 8.76646   5021.75
 8.77582   5036.65
 8.78518   5093.74
 8.79454   5182.63
 8.8039   5325.43
 8.81326   5513.98
 8.82262   5794.41
 8.83198   6140.8
 8.84134   6423.7
 8.8507   6535.67
 8.86006   6411.24
 8.86942   6117.2
 8.87878   5774.03
 8.88814   5481.37
 8.8975   5269.55
 8.90686   5132.22
 8.91622   5058.86
 8.92558   5023.46
 8.93494   4996.91
 8.9443   4998.2
 8.95366   5008.31
 8.96302   5034.5
 8.97238   5089.81
 8.98174   5175.62
 8.9911   5273.56
 9.00046   5412.75
 9.00982   5538.22
 9.01918   5621.38
 9.02854   5597.93
 9.0379   5480.07
 9.04726   5315.38
 9.05662   5142.18
 9.06598   5026.54
 9.07534   4957.18
 9.0847   4904.32
 9.09406   4888.21
 9.10342   4874.42
 9.11278   4871.68
 9.12214   4853.17
 9.1315   4852.09
 9.14086   4868.11
 9.15022   4878.58
 9.15958   4891.99
 9.16894   4910.34
 9.1783   4938.36
 9.18766   4965.77
 9.19702   5040.4
 9.20638   5157
 9.21574   5336.98
 9.2251   5612.54
 9.23446   6003.74
 9.24382   6463.28
 9.25318   6872.3
 9.26254   7030.35
 9.2719   6902.74
 9.28126   6536.76
 9.29062   6094.01
 9.29998   5701.48
 9.30934   5426.15
 9.3187   5268.74
 9.32806   5195.09
 9.33742   5167.98
 9.34678   5199.74
 9.35614   5275.37
 9.3655   5329.3
 9.37486   5330.31
 9.38422   5308.79
 9.39358   5257.72
 9.40294   5235.99
 9.4123   5243.15
 9.42166   5310.63
 9.43102   5470.81
 9.44038   5687.26
 9.44974   5934.14
 9.4591   6139.67
 9.46846   6264.28
 9.47782   6324.44
 9.48718   6314.66
 9.49654   6234.55
 9.5059   6074.88
 9.51526   5856.13
 9.52462   5598.12
 9.53398   5366.07
 9.54334   5218.29
 9.5527   5117.76
 9.56206   5040.29
 9.57142   4993.73
 9.58078   4966.98
 9.59014   4953.64
 9.5995   4946.75
 9.60886   4930.58
 9.61822   4928.6
 9.62758   4928.83
 9.63694   4931.34
 9.6463   4926.85
 9.65566   4936.36
 9.66502   4938.47
 9.67438   4943.77
 9.68374   4937.7
 9.6931   4950.4
 9.70246   4960.37
 9.71182   4985.29
 9.72118   5000.11
 9.73054   5038.09
 9.7399   5093.46
 9.74926   5179.08
 9.75862   5313.64
 9.76798   5524.73
 9.77734   5851.53
 9.7867   6309.36
 9.79606   6818.36
 9.80542   7283.57
 9.81478   7545.68
 9.82414   7617.51
 9.8335   7823.71
 9.84286   8614.02
 9.85222   9387.42
 9.86158   11112.5
 9.87094   10578.8
 9.8803   8530.85
 9.88966   6807.8
 9.89902   5981.88
 9.90838   5460.74
 9.91774   5265.44
 9.9271   5179.25
 9.93646   5119.34
 9.94582   5094.22
 9.95518   5086.11
 9.96454   5079.67
 9.9739   5076.96
 9.98326   5069.62
 9.99262   5076.53
 10.002   5083.91
 10.0113   5081.73
 10.0207   5090.97
 10.0301   5092.66
 10.0394   5120.7
 10.0488   5142.22
 10.0581   5185.49
 10.0675   5202.82
 10.0769   5210.79
 10.0862   5191.39
 10.0956   5156.71
 10.1049   5120.18
 10.1143   5086.32
 10.1237   5067.17
 10.133   5053.21
 10.1424   5065.32
 10.1517   5042.61
 10.1611   5048.66
 10.1705   5056.92
 10.1798   5052.48
 10.1892   5031.88
 10.1985   5054.66
 10.2079   5057.85
 10.2173   5061.61
 10.2266   5060.98
 10.236   5078.66
 10.2453   5100.12
 10.2547   5148.66
 10.2641   5264.93
 10.2734   5458.5
 10.2828   5361.01
 10.2921   5631.81
 10.3015   5793.48
 10.3109   5741.59
 10.3202   5586.62
 10.3296   5758.33
 10.3389   5350.08
 10.3483   5203.1
 10.3577   5118.2
 10.367   5077.21
 10.3764   5057.44
 10.3857   5047.27
 10.3951   5045.69
 10.4045   5031.13
 10.4138   5026.49
 10.4232   5039.05
 10.4325   5017.45
 10.4419   5019.63
 10.4513   5016.5
 10.4606   5018.07
 10.47   5021.91
 10.4793   5021.29
 10.4887   5016.84
 10.4981   5035.29
 10.5074   5048.42
 10.5168   5060.96
 10.5261   5071.89
 10.5355   5113.11
 10.5449   5116.66
 10.5542   5117.89
 10.5636   5091.23
 10.5729   5062.46
 10.5823   5015.13
 10.5917   4992.28
 10.601   4971.99
 10.6104   4960.73
 10.6197   4947.16
 10.6291   4939.98
 10.6385   4938.18
 10.6478   4941.06
 10.6572   4959.03
 10.6665   4973.37
 10.6759   5006.15
 10.6853   5044.02
 10.6946   5124.94
 10.704   5212.1
 10.7133   5300.76
 10.7227   5351.47
 10.7321   5336.37
 10.7414   5267.85
 10.7508   5179.68
 10.7601   5089.63
 10.7695   5011.46
 10.7789   4965.6
 10.7882   4921.18
 10.7976   4896.62
 10.8069   4874.08
 10.8163   4865.73
 10.8257   4856.13
 10.835   4856.94
 10.8444   4854.61
 10.8537   4830.2
 10.8631   4828.19
 10.8725   4814.94
 10.8818   4795.96
 10.8912   4788.47
 10.9005   4788.43
 10.9099   4779.51
 10.9193   4755.86
 10.9286   4739.64
 10.938   4736.38
 10.9473   4729.26
 10.9567   4721.47
 10.9661   4735.35
 10.9754   4719.69
 10.9848   4721.58
 10.9941   4713.64
 11.0035   4709.43
 11.0129   4729.13
 11.0222   4738.02
 11.0316   4754.69
 11.0409   4777.6
 11.0503   4812.84
 11.0597   4869.12
 11.069   4975.24
 11.0784   5086.97
 11.0877   5278.75
 11.0971   5519.58
 11.1065   5694.35
 11.1158   5788.93
 11.1252   5738.35
 11.1345   5571.97
 11.1439   5344.2
 11.1533   5128.23
 11.1626   4960.69
 11.172   4854.54
 11.1813   4771.6
 11.1907   4727.11
 11.2001   4686.23
 11.2094   4664.06
 11.2188   4667.2
 11.2281   4669.78
 11.2375   4670.26
 11.2469   4686.07
 11.2562   4683.37
 11.2656   4688.47
 11.2749   4682.27
 11.2843   4687.98
 11.2937   4678.58
 11.303   4657.73
 11.3124   4620.38
 11.3217   4585.16
 11.3311   4559.39
 11.3405   4538.33
 11.3498   4516.36
 11.3592   4509.51
 11.3685   4503.45
 11.3779   4508.34
 11.3873   4493.01
 11.3966   4493.23
 11.406   4494.02
 11.4153   4500.37
 11.4247   4502
 11.4341   4502.92
 11.4434   4518.77
 11.4528   4545.21
 11.4621   4565.08
 11.4715   4611.42
 11.4809   4684.02
 11.4902   4767.17
 11.4996   4873.77
 11.5089   4961.77
 11.5183   5028.27
 11.5277   5047.99
 11.537   4986.48
 11.5464   4871.68
 11.5557   4747.55
 11.5651   4654.08
 11.5745   4570.55
 11.5838   4511.55
 11.5932   4473.35
 11.6025   4450.22
 11.6119   4440.48
 11.6213   4423.49
 11.6306   4403.11
 11.64   4393.24
 11.6493   4385.63
 11.6587   4359.66
 11.6681   4354.81
 11.6774   4347.69
 11.6868   4344.38
 11.6961   4329.04
 11.7055   4322.91
 11.7149   4319.46
 11.7242   4322.57
 11.7336   4316.19
 11.7429   4305.91
 11.7523   4296.58
 11.7617   4299.51
 11.771   4299.49
 11.7804   4286.84
 11.7897   4286.69
 11.7991   4283.69
 11.8085   4286.57
 11.8178   4280.35
 11.8272   4282.63
 11.8365   4277.5
 11.8459   4284.53
 11.8553   4291.09
 11.8646   4311.56
 11.874   4352.16
 11.8833   4377.06
 11.8927   4416.93
 11.9021   4474.31
 11.9114   4475.43
 11.9208   4420.03
 11.9301   4394.24
 11.9395   4402.18
 11.9489   4372.64
 11.9582   4398.7
 11.9676   4451.75
 11.9769   4521.26
 11.9863   4589.44
 11.9957   4636.09
 12.005   4637.01
 12.0144   4609.82
 12.0237   4533.56
 12.0331   4471.01
 12.0425   4425.89
 12.0518   4421.3
 12.0612   4427.32
 12.0705   4463.46
 12.0799   4562.28
 12.0893   4686.99
 12.0986   4862.11
 12.108   5047.38
 12.1173   5219.79
 12.1267   5310.09
 12.1361   5270.67
 12.1454   5130.08
 12.1548   4916.61
 12.1641   4718
 12.1735   4539.02
 12.1829   4401.25
 12.1922   4325.36
 12.2016   4243.2
 12.2109   4201.48
 12.2203   4167.43
 12.2297   4139.9
 12.239   4115.68
 12.2484   4100.53
 12.2577   4102.33
 12.2671   4079.82
 12.2765   4083.99
 12.2858   4080.43
 12.2952   4079.34
 12.3045   4073.91
 12.3139   4079.08
 12.3233   4084.16
 12.3326   4101.52
 12.342   4118.28
 12.3513   4161.86
 12.3607   4199.69
 12.3701   4267.2
 12.3794   4322.77
 12.3888   4361.03
 12.3981   4389.6
 12.4075   4412
 12.4169   4429.84
 12.4262   4469.59
 12.4356   4545.43
 12.4449   4619.76
 12.4543   4686.23
 12.4637   4721.5
 12.473   4715.16
 12.4824   4668.51
 12.4917   4589.74
 12.5011   4482.11
 12.5105   4366.99
 12.5198   4269.48
 12.5292   4183.54
 12.5385   4133.46
 12.5479   4096.3
 12.5573   4048.33
 12.5666   4022.83
 12.576   4002.74
 12.5853   3990.21
 12.5947   3996.24
 12.6041   3984.53
 12.6134   3986.68
 12.6228   3976.5
 12.6321   4000.73
 12.6415   4005.48
 12.6509   4038.65
 12.6602   4090.41
 12.6696   4149.89
 12.6789   4266.12
 12.6883   4402.17
 12.6977   4590.95