File: docs/GuiliangJun25_tutorial_output/integrals/MA2-00002_spotsmasked.chi
MA2-00002.tif Azm= 0.00
2-Theta Angle (Degrees)
Intensity
       2500
 1.00702   7900.28
 1.01638   7905.44
 1.02574   7824.09
 1.0351   7739.11
 1.04446   7713.55
 1.05382   7732.59
 1.06318   7658.77
 1.07254   7591.16
 1.0819   7531.69
 1.09126   7496.21
 1.10062   7458.14
 1.10998   7408.7
 1.11934   7414.44
 1.1287   7369.88
 1.13806   7310.23
 1.14742   7290.14
 1.15678   7288.52
 1.16614   7265.38
 1.1755   7217.43
 1.18486   7205.79
 1.19422   7245.77
 1.20358   7189.34
 1.21294   7161.59
 1.2223   7198.61
 1.23166   7151.1
 1.24102   7146.25
 1.25038   7154.46
 1.25974   7154.24
 1.2691   7130.22
 1.27846   7150.89
 1.28782   7128.78
 1.29718   7126.38
 1.30654   7134.09
 1.3159   7164.95
 1.32526   7163.83
 1.33462   7145.97
 1.34398   7164.67
 1.35334   7199.16
 1.3627   7182.11
 1.37206   7175.73
 1.38142   7234.28
 1.39078   7267.26
 1.40014   7303.43
 1.4095   7300.08
 1.41886   7341.06
 1.42822   7395.61
 1.43758   7412.64
 1.44694   7474.65
 1.4563   7512.97
 1.46566   7583.29
 1.47502   7592.36
 1.48438   7645.76
 1.49374   7660.03
 1.5031   7730.02
 1.51246   7733.19
 1.52182   7761.57
 1.53118   7747.73
 1.54054   7752.49
 1.5499   7757.48
 1.55926   7714.49
 1.56862   7731.64
 1.57798   7743.85
 1.58734   7694.16
 1.5967   7683.85
 1.60606   7673.98
 1.61542   7679.61
 1.62478   7669.64
 1.63414   7669.53
 1.6435   7666.05
 1.65286   7688.16
 1.66222   7699.62
 1.67158   7691.24
 1.68094   7694.82
 1.6903   7702.75
 1.69966   7726.68
 1.70902   7734.49
 1.71838   7708.57
 1.72774   7715.83
 1.7371   7766.69
 1.74646   7758.05
 1.75582   7784.96
 1.76518   7775.39
 1.77454   7790.57
 1.7839   7848.91
 1.79326   7828.12
 1.80262   7861.39
 1.81198   7909.09
 1.82134   7936.64
 1.8307   7956.79
 1.84006   8012.01
 1.84942   8036.38
 1.85878   8061.34
 1.86814   8101.45
 1.8775   8145.55
 1.88686   8203.53
 1.89622   8250.15
 1.90558   8271.65
 1.91494   8310.63
 1.9243   8396.3
 1.93366   8423.62
 1.94302   8469.64
 1.95238   8505.06
 1.96174   8568.68
 1.9711   8588.84
 1.98046   8659.95
 1.98982   8708.51
 1.99918   8736.05
 2.00854   8791.1
 2.0179   8815.21
 2.02726   8871.04
 2.03662   8901.06
 2.04598   8962.36
 2.05534   8993.09
 2.0647   9053.58
 2.07406   9101.87
 2.08342   9144.25
 2.09278   9217.81
 2.10214   9324.45
 2.1115   9378.13
 2.12086   9410.36
 2.13022   9439.64
 2.13958   9496.31
 2.14894   9590.19
 2.1583   9683.48
 2.16766   9814.38
 2.17702   9968.11
 2.18638   10214.5
 2.19574   10537.3
 2.2051   11194.1
 2.21446   12433.3
 2.22382   15036.7
 2.23318   19652.4
 2.24254   25124.2
 2.2519   27831.3
 2.26126   25625.1
 2.27062   20146
 2.27998   15549.4
 2.28934   12853.3
 2.2987   11624.2
 2.30806   11143.7
 2.31742   10931.6
 2.32678   10856.5
 2.33614   10813.9
 2.3455   10848.9
 2.35486   10861.6
 2.36422   10906.2
 2.37358   10953
 2.38294   11026.9
 2.3923   11089.6
 2.40166   11147.9
 2.41102   11236.9
 2.42038   11292.2
 2.42974   11337.9
 2.4391   11444.8
 2.44846   11493.6
 2.45782   11579.9
 2.46718   11637.3
 2.47654   11734.1
 2.4859   11785
 2.49526   11873
 2.50462   11963.2
 2.51398   12017.2
 2.52334   12080.1
 2.5327   12163.8
 2.54206   12232.4
 2.55142   12302.5
 2.56078   12373.6
 2.57014   12445.1
 2.5795   12515.2
 2.58886   12582.8
 2.59822   12656.6
 2.60758   12683
 2.61694   12729.7
 2.6263   12775.5
 2.63566   12834.5
 2.64502   12860.5
 2.65438   12904.5
 2.66374   12899.5
 2.6731   12956.8
 2.68246   12952.6
 2.69182   12977
 2.70118   13019.8
 2.71054   13041.5
 2.7199   13039.6
 2.72926   13034.2
 2.73862   13020.5
 2.74798   13011
 2.75734   13004.8
 2.7667   13011.7
 2.77606   12984.1
 2.78542   12958.7
 2.79478   12956.7
 2.80414   12925.4
 2.8135   12879.8
 2.82286   12855.9
 2.83222   12851.4
 2.84158   12793
 2.85094   12783.3
 2.8603   12746.3
 2.86966   12714.4
 2.87902   12689.1
 2.88838   12650
 2.89774   12631.3
 2.9071   12578.7
 2.91646   12527.6
 2.92582   12485.1
 2.93518   12441.7
 2.94454   12413.3
 2.9539   12367.5
 2.96326   12325.8
 2.97262   12268.9
 2.98198   12233.5
 2.99134   12169.7
 3.0007   12119.6
 3.01006   12081.5
 3.01942   12008.1
 3.02878   11972.2
 3.03814   11893.4
 3.0475   11860.8
 3.05686   11799
 3.06622   11724
 3.07558   11666.6
 3.08494   11602.5
 3.0943   11558.4
 3.10366   11501.6
 3.11302   11482
 3.12238   11447.1
 3.13174   11396.7
 3.1411   11357.4
 3.15046   11314.3
 3.15982   11289.9
 3.16918   11227.6
 3.17854   11198.5
 3.1879   11194.2
 3.19726   11142.4
 3.20662   11100.7
 3.21598   11069.2
 3.22534   11035.2
 3.2347   11010.7
 3.24406   10967.8
 3.25342   10934.2
 3.26278   10938
 3.27214   10914
 3.2815   10875.4
 3.29086   10859.3
 3.30022   10862.7
 3.30958   10856.1
 3.31894   10814.1
 3.3283   10816
 3.33766   10817.1
 3.34702   10785.7
 3.35638   10762.1
 3.36574   10772.3
 3.3751   10762.9
 3.38446   10753.4
 3.39382   10736.9
 3.40318   10771
 3.41254   10765.7
 3.4219   10764.1
 3.43126   10748
 3.44062   10784.3
 3.44998   10787.5
 3.45934   10789.8
 3.4687   10777.4
 3.47806   10787.7
 3.48742   10787.3
 3.49678   10767
 3.50614   10781.1
 3.5155   10780.1
 3.52486   10738.9
 3.53422   10726.5
 3.54358   10785.2
 3.55294   10766.9
 3.5623   10761.8
 3.57166   10737.1
 3.58102   10777.1
 3.59038   10767.6
 3.59974   10729.2
 3.6091   10725.1
 3.61846   10762.8
 3.62782   10707.3
 3.63718   10679.1
 3.64654   10693.1
 3.6559   10716.4
 3.66526   10614.6
 3.67462   10533.6
 3.68398   10603.8
 3.69334   10559.3
 3.7027   10425.8
 3.71206   10411.8
 3.72142   10375.8
 3.73078   10259.8
 3.74014   10147.6
 3.7495   10112.9
 3.75886   10068.1
 3.76822   9957.06
 3.77758   9803.95
 3.78694   9813.7
 3.7963   9820.85
 3.80566   9624.78
 3.81502   9567.85
 3.82438   9646.04
 3.83374   9563.29
 3.8431   9379.6
 3.85246   9408.49
 3.86182   9381.38
 3.87118   9262.07
 3.88054   9165.06
 3.8899   9145.38
 3.89926   9102.73
 3.90862   8977.82
 3.91798   8919.57
 3.92734   8930.51
 3.9367   8842.26
 3.94606   8769.94
 3.95542   8785.94
 3.96478   8710.66
 3.97414   8650.23
 3.9835   8626.07
 3.99286   8551.2
 4.00222   8538.72
 4.01158   8471.16
 4.02094   8406.83
 4.0303   8393.11
 4.03966   8413.4
 4.04902   8303.42
 4.05838   8260.82
 4.06774   8282.84
 4.0771   8217.77
 4.08646   8150.41
 4.09582   8086.84
 4.10518   8105.08
 4.11454   8112.13
 4.1239   7971.71
 4.13326   7964.89
 4.14262   7993.11
 4.15198   7939.25
 4.16134   7848.53
 4.1707   7838.21
 4.18006   7867.45
 4.18942   7870.6
 4.19878   7767.41
 4.20814   7777.34
 4.2175   7892.96
 4.22686   7781.4
 4.23622   7679.89
 4.24558   7734.71
 4.25494   7759.73
 4.2643   7742.67
 4.27366   7704.21
 4.28302   7738.61
 4.29238   7727.36
 4.30174   7666.55
 4.3111   7691.24
 4.32046   7685.81
 4.32982   7724.11
 4.33918   7664.6
 4.34854   7670.98
 4.3579   7678.92
 4.36726   7638.71
 4.37662   7595.22
 4.38598   7637.31
 4.39534   7625.27
 4.4047   7661.3
 4.41406   7594.91
 4.42342   7588.3
 4.43278   7645.09
 4.44214   7621.22
 4.4515   7638.23
 4.46086   7819.88
 4.47022   8167.63
 4.47958   8702.92
 4.48894   9547.39
 4.4983   10369.2
 4.50766   10617.7
 4.51702   10062.9
 4.52638   9103.25
 4.53574   8230.25
 4.5451   7614.46
 4.55446   7295.66
 4.56382   7114.74
 4.57318   7028.62
 4.58254   6969.91
 4.5919   6891.51
 4.60126   6848.55
 4.61062   6820.6
 4.61998   6764.05
 4.62934   6745.1
 4.6387   6726.26
 4.64806   6716.24
 4.65742   6691.69
 4.66678   6746.04
 4.67614   6815.67
 4.6855   6987.55
 4.69486   7419.05
 4.70422   8242.06
 4.71358   9318.54
 4.72294   10168.1
 4.7323   10123.4
 4.74166   9270.14
 4.75102   8239.11
 4.76038   7410.22
 4.76974   6932.67
 4.7791   6694.33
 4.78846   6560.87
 4.79782   6492.6
 4.80718   6448.89
 4.81654   6431.33
 4.8259   6456.71
 4.83526   6483.41
 4.84462   6589.53
 4.85398   6835.07
 4.86334   7364.61
 4.8727   8382.73
 4.88206   10113.5
 4.89142   12084.2
 4.90078   13222.3
 4.91014   12688.7
 4.9195   10904.7
 4.92886   9008.83
 4.93822   7723.87
 4.94758   6954.84
 4.95694   6584.09
 4.9663   6400.64
 4.97566   6277.7
 4.98502   6229.44
 4.99438   6164.56
 5.00374   6138.56
 5.0131   6129.49
 5.02246   6102.19
 5.03182   6088.76
 5.04118   6092.64
 5.05054   6125.21
 5.0599   6164.23
 5.06926   6237.34
 5.07862   6406.97
 5.08798   6713.66
 5.09734   7355.38
 5.1067   9017.85
 5.11606   12140.3
 5.12542   19887.3
 5.13478   37822.8
 5.14414   50310.2
 5.1535   41602.5
 5.16286   26388.3
 5.17222   14889.9
 5.18158   9351.54
 5.19094   7235.86
 5.2003   6629.76
 5.20966   6358.8
 5.21902   6157.18
 5.22838   6037.31
 5.23774   5965.76
 5.2471   5923.2
 5.25646   5863.31
 5.26582   5848.8
 5.27518   5827.28
 5.28454   5804.3
 5.2939   5804.48
 5.30326   5781.59
 5.31262   5774.26
 5.32198   5784.65
 5.33134   5770.44
 5.3407   5740.06
 5.35006   5747.38
 5.35942   5740.63
 5.36878   5744.84
 5.37814   5740.37
 5.3875   5736.53
 5.39686   5761.68
 5.40622   5773.09
 5.41558   5769.1
 5.42494   5813.65
 5.4343   5864.75
 5.44366   5911.77
 5.45302   5977.74
 5.46238   6094.28
 5.47174   6261.21
 5.4811   6576.04
 5.49046   7053.39
 5.49982   7894.15
 5.50918   9565.74
 5.51854   12637
 5.5279   17710.1
 5.53726   24121.4
 5.54662   29010.8
 5.55598   29132.4
 5.56534   24398.3
 5.5747   18109.6
 5.58406   13012.9
 5.59342   9875.15
 5.60278   8105.02
 5.61214   7163.81
 5.6215   6637.38
 5.63086   6322.2
 5.64022   6115.81
 5.64958   6011.91
 5.65894   5905.77
 5.6683   5848.69
 5.67766   5792.55
 5.68702   5761.82
 5.69638   5733.73
 5.70574   5714.03
 5.7151   5703.18
 5.72446   5705.01
 5.73382   5701.23
 5.74318   5708.01
 5.75254   5738.12
 5.7619   5740.9
 5.77126   5727.92
 5.78062   5721.09
 5.78998   5709.71
 5.79934   5700.42
 5.8087   5698.48
 5.81806   5665.79
 5.82742   5655.34
 5.83678   5652.22
 5.84614   5640.52
 5.8555   5649.29
 5.86486   5682.51
 5.87422   5701.64
 5.88358   5758.61
 5.89294   5841.14
 5.9023   6061.95
 5.91166   6591.91
 5.92102   7778.12
 5.93038   10240.6
 5.93974   12227.5
 5.9491   11968.7
 5.95846   9877.71
 5.96782   7788.15
 5.97718   6827.9
 5.98654   6573.57
 5.9959   6412.19
 6.00526   6243.08
 6.01462   6085.16
 6.02398   5959.44
 6.03334   5835.77
 6.0427   5778.43
 6.05206   5760.24
 6.06142   5742.99
 6.07078   5712.99
 6.08014   5711.45
 6.0895   5736.43
 6.09886   5724.23
 6.10822   5708.76
 6.11758   5722.86
 6.12694   5721.38
 6.1363   5721.4
 6.14566   5717.93
 6.15502   5734.78
 6.16438   5739.98
 6.17374   5749.16
 6.1831   5741.05
 6.19246   5776.19
 6.20182   5780.43
 6.21118   5771.36
 6.22054   5755.07
 6.2299   5795.24
 6.23926   5799.98
 6.24862   5789.58
 6.25798   5813.27
 6.26734   5825.64
 6.2767   5840.89
 6.28606   5833.04
 6.29542   5847.23
 6.30478   5856.37
 6.31414   5850.98
 6.3235   5845.89
 6.33286   5880.19
 6.34222   5887
 6.35158   5889.67
 6.36094   5863.77
 6.3703   5880.24
 6.37966   5897.91
 6.38902   5895.37
 6.39838   5900.19
 6.40774   5911.9
 6.4171   5948.12
 6.42646   5944.2
 6.43582   5938.77
 6.44518   5962.25
 6.45454   5973.02
 6.4639   5981.94
 6.47326   5966.28
 6.48262   5966.9
 6.49198   5998.49
 6.50134   5975.86
 6.5107   5987.18
 6.52006   6029.53
 6.52942   6007.36
 6.53878   6022.22
 6.54814   6056.35
 6.5575   6093.1
 6.56686   6100.55
 6.57622   6124.32
 6.58558   6145.64
 6.59494   6162.67
 6.6043   6169.26
 6.61366   6182.23
 6.62302   6190.04
 6.63238   6208.29
 6.64174   6193.46
 6.6511   6218.93
 6.66046   6278.21
 6.66982   6283.67
 6.67918   6305.03
 6.68854   6309.07
 6.6979   6343.44
 6.70726   6393.9
 6.71662   6429.68
 6.72598   6456.21
 6.73534   6525.49
 6.7447   6556.64
 6.75406   6571.07
 6.76342   6578.14
 6.77278   6657.87
 6.78214   6599.34
 6.7915   6595.05
 6.80086   6575.04
 6.81022   6578.41
 6.81958   6591.18
 6.82894   6584.92
 6.8383   6597.96
 6.84766   6641.33
 6.85702   6615.87
 6.86638   6621.23
 6.87574   6630.27
 6.8851   6654.44
 6.89446   6684.24
 6.90382   6725.39
 6.91318   6730.89
 6.92254   6798.26
 6.9319   6808.66
 6.94126   6819.1
 6.95062   6911.91
 6.95998   6976.46
 6.96934   7014.88
 6.9787   7176.48
 6.98806   7400.04
 6.99742   7728.8
 7.00678   8260.1
 7.01614   8916.19
 7.0255   9491.07
 7.03486   9664.91
 7.04422   9345.47
 7.05358   8748.39
 7.06294   8227.66
 7.0723   7746.69
 7.08166   7342.57
 7.09102   7064.06
 7.10038   6919.42
 7.10974   6789.88
 7.1191   6711.48
 7.12846   6670.31
 7.13782   6647.95
 7.14718   6624.57
 7.15654   6585.2
 7.1659   6568.77
 7.17526   6591.58
 7.18462   6554.33
 7.19398   6543.5
 7.20334   6528.29
 7.2127   6533.89
 7.22206   6490.25
 7.23142   6492.73
 7.24078   6490.41
 7.25014   6511.2
 7.2595   6518.8
 7.26886   6523.83
 7.27822   6503.95
 7.28758   6512.91
 7.29694   6484.67
 7.3063   6485.27
 7.31566   6497.92
 7.32502   6528.26
 7.33438   6511.64
 7.34374   6528.7
 7.3531   6536.7
 7.36246   6528.12
 7.37182   6525.44
 7.38118   6511.53
 7.39054   6484.42
 7.3999   6459.78
 7.40926   6427.41
 7.41862   6411.35
 7.42798   6406.5
 7.43734   6395.56
 7.4467   6402.61
 7.45606   6412.29
 7.46542   6411.52
 7.47478   6406.08
 7.48414   6410.98
 7.4935   6420.7
 7.50286   6450.87
 7.51222   6484.51
 7.52158   6514.6
 7.53094   6592.82
 7.5403   6693.57
 7.54966   6872.11
 7.55902   7157.01
 7.56838   7661.08
 7.57774   8468.84
 7.5871   9618.7
 7.59646   10961.7
 7.60582   11965.1
 7.61518   12182.7
 7.62454   11408.8
 7.6339   10090.6
 7.64326   8778.1
 7.65262   7832.93
 7.66198   7202.73
 7.67134   6739.77
 7.6807   6517.78
 7.69006   6363.63
 7.69942   6246.11
 7.70878   6182.65
 7.71814   6121.31
 7.7275   6068.75
 7.73686   6028.12
 7.74622   5986.76
 7.75558   5941.38
 7.76494   5917.2
 7.7743   5904.26
 7.78366   5878.84
 7.79302   5855.34
 7.80238   5833.78
 7.81174   5826.26
 7.8211   5782.6
 7.83046   5749.11
 7.83982   5747.27
 7.84918   5739.82
 7.85854   5708.2
 7.8679   5682.49
 7.87726   5688.77
 7.88662   5682.25
 7.89598   5655.68
 7.90534   5634.99
 7.9147   5622.25
 7.92406   5625.69
 7.93342   5621.46
 7.94278   5596.88
 7.95214   5616.03
 7.9615   5623.34
 7.97086   5607.83
 7.98022   5604.15
 7.98958   5643.84
 7.99894   5683.59
 8.0083   5698.6
 8.01766   5791.57
 8.02702   5998.6
 8.03638   6335.22
 8.04574   6927.67
 8.0551   7855.67
 8.06446   9147.04
 8.07382   10507.4
 8.08318   11304.9
 8.09254   11226.6
 8.1019   10386.8
 8.11126   9122.58
 8.12062   7911.48
 8.12998   7056.93
 8.13934   6454.37
 8.1487   6034.05
 8.15806   5798.09
 8.16742   5642.52
 8.17678   5540.54
 8.18614   5485.75
 8.1955   5416.85
 8.20486   5389.14
 8.21422   5386.59
 8.22358   5364.17
 8.23294   5332.1
 8.2423   5343.63
 8.25166   5327.87
 8.26102   5315.04
 8.27038   5288.38
 8.27974   5305.58
 8.2891   5292.55
 8.29846   5319
 8.30782   5317.04
 8.31718   5329.47
 8.32654   5402.72
 8.3359   5456.08
 8.34526   5592.77
 8.35462   5835.01
 8.36398   6180.64
 8.37334   6761.49
 8.3827   7610.09
 8.39206   8626.74
 8.40142   9695.48
 8.41078   9864.33
 8.42014   8822.03
 8.4295   7254.12
 8.43886   6336.94
 8.44822   5756.08
 8.45758   5529.23
 8.46694   5372.6
 8.4763   5295.5
 8.48566   5249.81
 8.49502   5215.73
 8.50438   5187.91
 8.51374   5163.47
 8.5231   5141.01
 8.53246   5119.5
 8.54182   5123.2
 8.55118   5109.02
 8.56054   5095.16
 8.5699   5077.07
 8.57926   5050.9
 8.58862   5045.27
 8.59798   5042.77
 8.60734   5047.45
 8.6167   5047.21
 8.62606   5034.3
 8.63542   5024.63
 8.64478   5016.13
 8.65414   5025.27
 8.6635   5008.65
 8.67286   5009.28
 8.68222   4985.2
 8.69158   4982.21
 8.70094   4985.51
 8.7103   4976.68
 8.71966   4967.27
 8.72902   4989.04
 8.73838   4982.89
 8.74774   4974.58
 8.7571   4994.57
 8.76646   5023.3
 8.77582   5037.4
 8.78518   5094.49
 8.79454   5185.05
 8.8039   5325.43
 8.81326   5513.98
 8.82262   5797.16
 8.83198   6140.8
 8.84134   6423.7
 8.8507   6539.31
 8.86006   6411.24
 8.86942   6117.2
 8.87878   5775.3
 8.88814   5482.6
 8.8975   5269.55
 8.90686   5133.58
 8.91622   5058.86
 8.92558   5023.46
 8.93494   4998.85
 8.9443   4998.2
 8.95366   5008.31
 8.96302   5034.5
 8.97238   5092.25
 8.98174   5175.62
 8.9911   5273.56
 9.00046   5414.35
 9.00982   5538.87
 9.01918   5622.16
 9.02854   5599.13
 9.0379   5480.07
 9.04726   5314.8
 9.05662   5145.08
 9.06598   5027.15
 9.07534   4957.15
 9.0847   4904.92
 9.09406   4888.78
 9.10342   4873.88
 9.11278   4871.09
 9.12214   4853.72
 9.1315   4853.84
 9.14086   4868.65
 9.15022   4879.13
 9.15958   4893.56
 9.16894   4909.89
 9.1783   4939.44
 9.18766   4967.98
 9.19702   5041.74
 9.20638   5156.43
 9.21574   5337.6
 9.2251   5618.89
 9.23446   6003.74
 9.24382   6463.28
 9.25318   6873.48
 9.26254   7035.04
 9.2719   6902.77
 9.28126   6537.36
 9.29062   6094.01
 9.29998   5701.48
 9.30934   5430.83
 9.3187   5268.18
 9.32806   5195.59
 9.33742   5169.07
 9.34678   5202.52
 9.35614   5275.88
 9.3655   5331.66
 9.37486   5330.8
 9.38422   5311.06
 9.39358   5257.72
 9.40294   5235.08
 9.4123   5243.34
 9.42166   5310.61
 9.43102   5470.17
 9.44038   5687.26
 9.44974   5936.15
 9.4591   6139.3
 9.46846   6264.28
 9.47782   6326.36
 9.48718   6314.66
 9.49654   6234.55
 9.5059   6075.85
 9.51526   5856.13
 9.52462   5598.12
 9.53398   5367.02
 9.54334   5218.96
 9.5527   5118.5
 9.56206   5040.49
 9.57142   4995.72
 9.58078   4966.45
 9.59014   4954.77
 9.5995   4948.9
 9.60886   4931.2
 9.61822   4930.47
 9.62758   4929.36
 9.63694   4930.79
 9.6463   4927.43
 9.65566   4937.01
 9.66502   4938.49
 9.67438   4944.89
 9.68374   4938.44
 9.6931   4950.4
 9.70246   4962.19
 9.71182   4985.08
 9.72118   5000.84
 9.73054   5040.83
 9.7399   5093.77
 9.74926   5180.32
 9.75862   5313.07
 9.76798   5524.73
 9.77734   5854.96
 9.7867   6309.36
 9.79606   6818.36
 9.80542   7285.71
 9.81478   7545.68
 9.82414   7648.18
 9.8335   7916.16
 9.84286   8999.93
 9.85222   10970.1
 9.86158   12786.3
 9.87094   12082.9
 9.8803   9498.23
 9.88966   7220.13
 9.89902   6006.23
 9.90838   5478.76
 9.91774   5265.44
 9.9271   5179.25
 9.93646   5121.94
 9.94582   5096.22
 9.95518   5086.11
 9.96454   5081.09
 9.9739   5077.59
 9.98326   5071.57
 9.99262   5077.18
 10.002   5084.62
 10.0113   5083.66
 10.0207   5092.32
 10.0301   5093.36
 10.0394   5122.13
 10.0488   5142.87
 10.0581   5187.51
 10.0675   5205.42
 10.0769   5211.67
 10.0862   5193.36
 10.0956   5158.72
 10.1049   5122.22
 10.1143   5089.05
 10.1237   5067.17
 10.133   5054.47
 10.1424   5067.29
 10.1517   5043.97
 10.1611   5048.66
 10.1705   5060.83
 10.1798   5055.88
 10.1892   5034.72
 10.1985   5056.11
 10.2079   5060.5
 10.2173   5064.96
 10.2266   5063.79
 10.236   5083.18
 10.2453   5104.97
 10.2547   5159.81
 10.2641   5275.69
 10.2734   5602.5
 10.2828   6295.93
 10.2921   7512.39
 10.3015   8398.62
 10.3109   8164.64
 10.3202   6897.53
 10.3296   5962.39
 10.3389   5413.33
 10.3483   5204.57
 10.3577   5118.2
 10.367   5077.95
 10.3764   5057.44
 10.3857   5047.27
 10.3951   5046.94
 10.4045   5032.17
 10.4138   5027.3
 10.4232   5039.81
 10.4325   5017.45
 10.4419   5020.41
 10.4513   5017.4
 10.4606   5021
 10.47   5022.74
 10.4793   5022.37
 10.4887   5017.94
 10.4981   5039.76
 10.5074   5050.63
 10.5168   5065
 10.5261   5072.71
 10.5355   5113.11
 10.5449   5117.41
 10.5542   5117.89
 10.5636   5092.75
 10.5729   5063.26
 10.5823   5015.89
 10.5917   4993.02
 10.601   4974.82
 10.6104   4962.99
 10.6197   4947.16
 10.6291   4940.72
 10.6385   4938.96
 10.6478   4942.56
 10.6572   4959.71
 10.6665   4974.02
 10.6759   5007.42
 10.6853   5046.83
 10.6946   5125.46
 10.704   5215.3
 10.7133   5300.62
 10.7227   5353.52
 10.7321   5337.72
 10.7414   5272.2
 10.7508   5182.23
 10.7601   5089.63
 10.7695   5012.11
 10.7789   4966.33
 10.7882   4922.99
 10.7976   4897.78
 10.8069   4874.08
 10.8163   4866.97
 10.8257   4857.16
 10.835   4858.14
 10.8444   4856.26
 10.8537   4830.86
 10.8631   4828.15
 10.8725   4817.16
 10.8818   4795.96
 10.8912   4789.03
 10.9005   4789.22
 10.9099   4779.97
 10.9193   4758.28
 10.9286   4740.21
 10.938   4736.88
 10.9473   4730.24
 10.9567   4723.53
 10.9661   4736.36
 10.9754   4720.29
 10.9848   4723.1
 10.9941   4714.68
 11.0035   4711.35
 11.0129   4729.57
 11.0222   4737.59
 11.0316   4754.68
 11.0409   4777.71
 11.0503   4812.34
 11.0597   4870.74
 11.069   4974.3
 11.0784   5087.82
 11.0877   5282.08
 11.0971   5519.65
 11.1065   5696.19
 11.1158   5790.84
 11.1252   5739.45
 11.1345   5570.72
 11.1439   5347.49
 11.1533   5128.23
 11.1626   4959.15
 11.172   4856.39
 11.1813   4771.59
 11.1907   4726.65
 11.2001   4686.8
 11.2094   4663.15
 11.2188   4665.98
 11.2281   4668.6
 11.2375   4671.07
 11.2469   4686.13
 11.2562   4683.74
 11.2656   4689.66
 11.2749   4681.36
 11.2843   4689.4
 11.2937   4679.7
 11.303   4658.28
 11.3124   4618.49
 11.3217   4587.38
 11.3311   4560.19
 11.3405   4536.56
 11.3498   4515.99
 11.3592   4509.23
 11.3685   4504.29
 11.3779   4507.87
 11.3873   4493.42
 11.3966   4492.82
 11.406   4492.48
 11.4153   4498.38
 11.4247   4500.78
 11.4341   4503.62
 11.4434   4518.37
 11.4528   4545.71
 11.4621   4566.2
 11.4715   4611.04
 11.4809   4682.52
 11.4902   4768.68
 11.4996   4872.56
 11.5089   4962.54
 11.5183   5031.22
 11.5277   5048.41
 11.537   4985.69
 11.5464   4873.16
 11.5557   4747.15
 11.5651   4651.62
 11.5745   4573.39
 11.5838   4511.55
 11.5932   4472.87
 11.6025   4450.64
 11.6119   4440.96
 11.6213   4424.61
 11.6306   4403.49
 11.64   4393.58
 11.6493   4386.77
 11.6587   4359.65
 11.6681   4356.07
 11.6774   4347.31
 11.6868   4345.14
 11.6961   4330.27
 11.7055   4324.19
 11.7149   4319.88
 11.7242   4322.89
 11.7336   4316.69
 11.7429   4306.27
 11.7523   4296.56
 11.7617   4300.8
 11.771   4301.27
 11.7804   4288.33
 11.7897   4287.59
 11.7991   4284.63
 11.8085   4287.33
 11.8178   4280.76
 11.8272   4283.07
 11.8365   4278.87
 11.8459   4284.53
 11.8553   4292.43
 11.8646   4312.64
 11.874   4369.92
 11.8833   4492.86
 11.8927   4683.8
 11.9021   4859.28
 11.9114   4827.4
 11.9208   4650.7
 11.9301   4484.19
 11.9395   4409.93
 11.9489   4373.56
 11.9582   4397.45
 11.9676   4455.19
 11.9769   4521.53
 11.9863   4589.83
 11.9957   4636.82
 12.005   4638.23
 12.0144   4610.63
 12.0237   4534.33
 12.0331   4473.1
 12.0425   4426.32
 12.0518   4421.24
 12.0612   4428.04
 12.0705   4464.16
 12.0799   4563.14
 12.0893   4689.07
 12.0986   4860.96
 12.108   5047.95
 12.1173   5221.74
 12.1267   5310.09
 12.1361   5271.8
 12.1454   5131.85
 12.1548   4917.42
 12.1641   4718.47
 12.1735   4542.8
 12.1829   4401.67
 12.1922   4324.65
 12.2016   4245.32
 12.2109   4200.73
 12.2203   4166.99
 12.2297   4140.64
 12.239   4117.93
 12.2484   4100.53
 12.2577   4104.04
 12.2671   4080.51
 12.2765   4083.93
 12.2858   4081.05
 12.2952   4079.37
 12.3045   4074.41
 12.3139   4079.42
 12.3233   4084.53
 12.3326   4101.51
 12.342   4119.64
 12.3513   4161.79
 12.3607   4199.67
 12.3701   4269.95
 12.3794   4323.07
 12.3888   4362.09
 12.3981   4392.49
 12.4075   4411.93
 12.4169   4430.53
 12.4262   4470.06
 12.4356   4545.79
 12.4449   4621.93
 12.4543   4687.6
 12.4637   4722.9
 12.473   4717.88
 12.4824   4670.16
 12.4917   4589.49
 12.5011   4484.72
 12.5105   4367
 12.5198   4267.12
 12.5292   4185.14
 12.5385   4133.73
 12.5479   4096.24
 12.5573   4049.33
 12.5666   4022.34
 12.576   4002.97
 12.5853   3990.89
 12.5947   3996.01
 12.6041   3983.85
 12.6134   3987.14
 12.6228   3976.48
 12.6321   4001.11
 12.6415   4006.13
 12.6509   4039.45
 12.6602   4087.97
 12.6696   4150.09
 12.6789   4264.21
 12.6883   4402.64
 12.6977   4595.97