File: docs/GuiliangJun25_tutorial_output/integrals/MA2-00003_arcsmasked.chi
MA2-00003.tif Azm= 0.00
2-Theta Angle (Degrees)
Intensity
       2500
 1.00702   7988.31
 1.01638   7921.2
 1.02574   7888.11
 1.0351   7794.23
 1.04446   7753.55
 1.05382   7728.8
 1.06318   7644.59
 1.07254   7625.03
 1.0819   7571.28
 1.09126   7555.68
 1.10062   7526.29
 1.10998   7472.57
 1.11934   7414.07
 1.1287   7417.84
 1.13806   7390.19
 1.14742   7340.68
 1.15678   7333.85
 1.16614   7294.68
 1.1755   7259.32
 1.18486   7266.64
 1.19422   7234.6
 1.20358   7245.88
 1.21294   7240.7
 1.2223   7216.17
 1.23166   7209.77
 1.24102   7174.14
 1.25038   7184.47
 1.25974   7135.53
 1.2691   7156.35
 1.27846   7167.23
 1.28782   7188.85
 1.29718   7189.06
 1.30654   7203.74
 1.3159   7181.86
 1.32526   7346.54
 1.33462   7383.65
 1.34398   7227.98
 1.35334   7221.95
 1.3627   7294.55
 1.37206   7269.81
 1.38142   7269.82
 1.39078   7301.52
 1.40014   7300.42
 1.4095   7348.18
 1.41886   7376.19
 1.42822   7427.28
 1.43758   7462.31
 1.44694   7545.58
 1.4563   7573.85
 1.46566   7635.46
 1.47502   7666.27
 1.48438   7701.03
 1.49374   7751.86
 1.5031   7776.48
 1.51246   7807.56
 1.52182   7809.77
 1.53118   7824.22
 1.54054   7829.05
 1.5499   7798.14
 1.55926   7778.5
 1.56862   7743.58
 1.57798   7749.72
 1.58734   7749.38
 1.5967   7717.01
 1.60606   7745.71
 1.61542   7744.49
 1.62478   7741.83
 1.63414   7711.1
 1.6435   7746.02
 1.65286   7743.07
 1.66222   7728.13
 1.67158   7764.34
 1.68094   7777.23
 1.6903   7712.83
 1.69966   7749.71
 1.70902   7720.79
 1.71838   7753.8
 1.72774   7761.7
 1.7371   7772.06
 1.74646   7795.18
 1.75582   7774.27
 1.76518   7825.31
 1.77454   7834.2
 1.7839   7872.15
 1.79326   7869.08
 1.80262   7903.2
 1.81198   7937.71
 1.82134   7960.06
 1.8307   8018.29
 1.84006   8059.49
 1.84942   8061.27
 1.85878   8125.49
 1.86814   8142.05
 1.8775   8163.08
 1.88686   8211.13
 1.89622   8273.04
 1.90558   8320.61
 1.91494   8367.55
 1.9243   8436.77
 1.93366   8457.86
 1.94302   8505.81
 1.95238   8584.29
 1.96174   8651.83
 1.9711   8867.02
 1.98046   8799.08
 1.98982   8757.08
 1.99918   8776.03
 2.00854   8803.01
 2.0179   8863.07
 2.02726   8927.07
 2.03662   8934.27
 2.04598   8988.56
 2.05534   9051.22
 2.0647   9076.6
 2.07406   9154.26
 2.08342   9208.61
 2.09278   9298.9
 2.10214   9352.67
 2.1115   9413.3
 2.12086   9458.26
 2.13022   9492.18
 2.13958   9552.77
 2.14894   9652.11
 2.1583   9756.21
 2.16766   9925.95
 2.17702   10129.9
 2.18638   10446.3
 2.19574   10968
 2.2051   11891.6
 2.21446   13658.2
 2.22382   16803.2
 2.23318   21608.9
 2.24254   26208
 2.2519   27421.4
 2.26126   24275.7
 2.27062   18926.6
 2.27998   14815.2
 2.28934   12560.4
 2.2987   11550.8
 2.30806   11112.2
 2.31742   10913
 2.32678   10880
 2.33614   10849.2
 2.3455   10880.3
 2.35486   10919.3
 2.36422   10943.6
 2.37358   11000
 2.38294   11051.4
 2.3923   11120.3
 2.40166   11187.5
 2.41102   11264.4
 2.42038   11318.1
 2.42974   11385.2
 2.4391   11466.1
 2.44846   11534.7
 2.45782   11617.1
 2.46718   11699.9
 2.47654   11757.5
 2.4859   11845.6
 2.49526   11904.3
 2.50462   12018.4
 2.51398   12075.5
 2.52334   12131.2
 2.5327   12203.1
 2.54206   12280.9
 2.55142   12351.7
 2.56078   12410.3
 2.57014   12482.4
 2.5795   12551.2
 2.58886   12618.5
 2.59822   12682.7
 2.60758   12726.1
 2.61694   12775.3
 2.6263   12825.9
 2.63566   12856.8
 2.64502   12892.6
 2.65438   12943.2
 2.66374   13005.3
 2.6731   13068.1
 2.68246   13042.4
 2.69182   13079.6
 2.70118   13097.4
 2.71054   13125.9
 2.7199   13129.5
 2.72926   13139.7
 2.73862   13111.2
 2.74798   13087.6
 2.75734   13085.6
 2.7667   13088.7
 2.77606   13074.6
 2.78542   13029.3
 2.79478   13040.5
 2.80414   13016.6
 2.8135   12972.9
 2.82286   12945.2
 2.83222   12916.3
 2.84158   12899.6
 2.85094   12861.9
 2.8603   12831.3
 2.86966   12794
 2.87902   12756.3
 2.88838   12702
 2.89774   12667.7
 2.9071   12628.8
 2.91646   12609.3
 2.92582   12569
 2.93518   12537.3
 2.94454   12499.3
 2.9539   12436.6
 2.96326   12375.3
 2.97262   12356.5
 2.98198   12296.8
 2.99134   12217.1
 3.0007   12182.2
 3.01006   12138.9
 3.01942   12060.5
 3.02878   12034
 3.03814   11960.4
 3.0475   11906.4
 3.05686   11829.1
 3.06622   11794.4
 3.07558   11740.7
 3.08494   11685
 3.0943   11645.3
 3.10366   11562.8
 3.11302   11533.8
 3.12238   11503
 3.13174   11467.5
 3.1411   11425.7
 3.15046   11397
 3.15982   11335.8
 3.16918   11320.5
 3.17854   11247.6
 3.1879   11246.6
 3.19726   11227.8
 3.20662   11188.2
 3.21598   11143.3
 3.22534   11121.1
 3.2347   11091.3
 3.24406   11025.5
 3.25342   11002
 3.26278   11017.6
 3.27214   10975.9
 3.2815   10946.5
 3.29086   10949.9
 3.30022   10922.2
 3.30958   10920.5
 3.31894   10900.3
 3.3283   10898.1
 3.33766   10888.1
 3.34702   10852.5
 3.35638   10831.4
 3.36574   10856.6
 3.3751   10855.7
 3.38446   10843.1
 3.39382   10842.7
 3.40318   10859.7
 3.41254   10892.2
 3.4219   10911
 3.43126   10883.8
 3.44062   10902.4
 3.44998   10926.4
 3.45934   10892
 3.4687   10908.7
 3.47806   10937.6
 3.48742   10920.4
 3.49678   10892.3
 3.50614   10904.3
 3.5155   10900.3
 3.52486   10873.6
 3.53422   10895.1
 3.54358   10952.5
 3.55294   10926
 3.5623   10900.4
 3.57166   10931.3
 3.58102   10964.3
 3.59038   10946.7
 3.59974   10933.1
 3.6091   10982.9
 3.61846   11045.7
 3.62782   11005
 3.63718   10992.3
 3.64654   11094.4
 3.6559   11173.4
 3.66526   11130.9
 3.67462   11172.1
 3.68398   11349.4
 3.69334   11361.7
 3.7027   11356.1
 3.71206   11428.2
 3.72142   11614.9
 3.73078   11484.5
 3.74014   11516.5
 3.7495   11608
 3.75886   11619.5
 3.76822   11776.8
 3.77758   11773.2
 3.78694   11892.3
 3.7963   12153.6
 3.80566   12080.5
 3.81502   12110.7
 3.82438   12634.2
 3.83374   12732.2
 3.8431   12962.9
 3.85246   13517.2
 3.86182   14016.1
 3.87118   14327
 3.88054   14993.1
 3.8899   15702.4
 3.89926   16813.7
 3.90862   17897.5
 3.91798   21307.6
 3.92734   26757.8
 3.9367   41768.2
 3.94606   69486
 3.95542   74149.6
 3.96478   88437.6
 3.97414   110972
 3.9835   89938
 3.99286   74083.3
 4.00222   39125.2
 4.01158   29692
 4.02094   20854.2
 4.0303   17793.2
 4.03966   15886
 4.04902   14117.1
 4.05838   13282.7
 4.06774   12867.6
 4.0771   12439.4
 4.08646   12340.3
 4.09582   11899.4
 4.10518   11659.1
 4.11454   11535
 4.1239   11092.9
 4.13326   10792.4
 4.14262   10829
 4.15198   10531.1
 4.16134   10295.6
 4.1707   10146.5
 4.18006   10089.2
 4.18942   9868.49
 4.19878   9642.61
 4.20814   9506.31
 4.2175   9475.8
 4.22686   9200.89
 4.23622   9016.42
 4.24558   9006.83
 4.25494   8835.23
 4.2643   8765.02
 4.27366   8619.77
 4.28302   8516.42
 4.29238   8406.33
 4.30174   8304.69
 4.3111   8225.43
 4.32046   8283.69
 4.32982   8174.53
 4.33918   8020.6
 4.34854   8039.71
 4.3579   7989.06
 4.36726   7896.71
 4.37662   7861.86
 4.38598   7807.57
 4.39534   7809.48
 4.4047   7767.08
 4.41406   7702.62
 4.42342   7723.54
 4.43278   7804.79
 4.44214   7811.31
 4.4515   7886.22
 4.46086   8181.49
 4.47022   8577.56
 4.47958   9133.33
 4.48894   9843
 4.4983   10333.5
 4.50766   10270.5
 4.51702   9574.52
 4.52638   8711.03
 4.53574   7989.57
 4.5451   7519.37
 4.55446   7254.05
 4.56382   7133.5
 4.57318   7035.8
 4.58254   6974.64
 4.5919   6904.8
 4.60126   6868.17
 4.61062   6848.9
 4.61998   6799.72
 4.62934   6773.44
 4.6387   6756.91
 4.64806   6746.64
 4.65742   6706.42
 4.66678   6737.31
 4.67614   6787.79
 4.6855   6922.92
 4.69486   7241.19
 4.70422   7867.29
 4.71358   8824.64
 4.72294   9747.5
 4.7323   10069.9
 4.74166   9646.98
 4.75102   8813.41
 4.76038   7962.29
 4.76974   7347.87
 4.7791   6968.89
 4.78846   6750.19
 4.79782   6592.22
 4.80718   6533.43
 4.81654   6480.71
 4.8259   6477.79
 4.83526   6489.84
 4.84462   6564.69
 4.85398   6748.31
 4.86334   7153.55
 4.8727   7939.9
 4.88206   9340.09
 4.89142   11115.9
 4.90078   12500.4
 4.91014   12597.2
 4.9195   11410
 4.92886   9753.69
 4.93822   8338.97
 4.94758   7408.2
 4.95694   6858.29
 4.9663   6555.44
 4.97566   6397.75
 4.98502   6297.12
 4.99438   6227.14
 5.00374   6192.36
 5.0131   6157.05
 5.02246   6149.06
 5.03182   6120.41
 5.04118   6113.51
 5.05054   6124.33
 5.0599   6171.29
 5.06926   6246.43
 5.07862   6394.13
 5.08798   6650.9
 5.09734   6954.8
 5.1067   7691.26
 5.11606   7600.52
 5.12542   8534.58
 5.13478   10996
 5.14414   12979.8
 5.1535   12196.5
 5.16286   9751.58
 5.17222   7689.07
 5.18158   6624.1
 5.19094   6625.75
 5.2003   6467.48
 5.20966   6258.76
 5.21902   6168.26
 5.22838   6065.08
 5.23774   6019.9
 5.2471   5964.49
 5.25646   5930.41
 5.26582   5894.62
 5.27518   5887.39
 5.28454   5842
 5.2939   5845.9
 5.30326   5851.84
 5.31262   5835.41
 5.32198   5810.58
 5.33134   5801.48
 5.3407   5826.86
 5.35006   5799.22
 5.35942   5786.84
 5.36878   5793.39
 5.37814   5816.12
 5.3875   5774.49
 5.39686   5800.61
 5.40622   5828.65
 5.41558   5855.31
 5.42494   5838.01
 5.4343   5893.56
 5.44366   5946.62
 5.45302   6034.56
 5.46238   6089.5
 5.47174   6261.21
 5.4811   6538.7
 5.49046   6936.34
 5.49982   7664.08
 5.50918   9095.73
 5.51854   11774.6
 5.5279   16246.5
 5.53726   22223.5
 5.54662   27433.7
 5.55598   28749.6
 5.56534   25310.1
 5.5747   19653.1
 5.58406   14564.7
 5.59342   11237
 5.60278   10690.1
 5.61214   8159.38
 5.6215   7047.57
 5.63086   6549.09
 5.64022   6231.68
 5.64958   6086.99
 5.65894   5995.02
 5.6683   5922.6
 5.67766   5843.29
 5.68702   5818.73
 5.69638   5802.25
 5.70574   5773.01
 5.7151   5729.49
 5.72446   5749
 5.73382   5777.23
 5.74318   5754.32
 5.75254   5775.35
 5.7619   5795.6
 5.77126   5800.25
 5.78062   5761.95
 5.78998   5730.83
 5.79934   5749.32
 5.8087   5746.65
 5.81806   5698.09
 5.82742   5706.74
 5.83678   5716.56
 5.84614   5701.17
 5.8555   5703.67
 5.86486   5730.38
 5.87422   5760.27
 5.88358   5807.54
 5.89294   5846.74
 5.9023   5950.7
 5.91166   6248.33
 5.92102   6574.02
 5.93038   7136.01
 5.93974   7735.22
 5.9491   7641.78
 5.95846   7084.61
 5.96782   6749.95
 5.97718   6579
 5.98654   6514.37
 5.9959   6466.95
 6.00526   6307.19
 6.01462   6157.03
 6.02398   6031.11
 6.03334   5896.94
 6.0427   5820.98
 6.05206   5814.86
 6.06142   5783.19
 6.07078   5740.08
 6.08014   5755.92
 6.0895   5749.86
 6.09886   5762.59
 6.10822   5728.27
 6.11758   5746.52
 6.12694   5745.54
 6.1363   5744.06
 6.14566   5732.41
 6.15502   5754.57
 6.16438   5769.18
 6.17374   5770.04
 6.1831   5754.8
 6.19246   5789
 6.20182   5789.38
 6.21118   5797.26
 6.22054   5784.71
 6.2299   5819.36
 6.23926   5834.54
 6.24862   5821.32
 6.25798   5827.27
 6.26734   5838.58
 6.2767   5868.81
 6.28606   5847.37
 6.29542   5858.35
 6.30478   5890.2
 6.31414   5889.18
 6.3235   5884.37
 6.33286   5913.44
 6.34222   5923.25
 6.35158   5929.16
 6.36094   5926.53
 6.3703   5926.71
 6.37966   5940.47
 6.38902   5964.87
 6.39838   5949.37
 6.40774   5998.17
 6.4171   6033.22
 6.42646   6022.67
 6.43582   6039.6
 6.44518   6099.24
 6.45454   6107.87
 6.4639   6119.03
 6.47326   6135.25
 6.48262   6161.01
 6.49198   6198.29
 6.50134   6197.47
 6.5107   6220.28
 6.52006   6256.62
 6.52942   6254.63
 6.53878   6282.18
 6.54814   6319.42
 6.5575   6371.26
 6.56686   6367.86
 6.57622   6394.29
 6.58558   6439.01
 6.59494   6518.68
 6.6043   6596.44
 6.61366   6619.49
 6.62302   6680.21
 6.63238   6756.96
 6.64174   6788.03
 6.6511   6829.26
 6.66046   6949.48
 6.66982   6943.81
 6.67918   6987.29
 6.68854   7021.46
 6.6979   7062.49
 6.70726   7105.4
 6.71662   7159.07
 6.72598   7169.47
 6.73534   7322.29
 6.7447   7355.71
 6.75406   7392.64
 6.76342   7514.07
 6.77278   7670.6
 6.78214   7725.77
 6.7915   7833.07
 6.80086   7939.42
 6.81022   8069.71
 6.81958   8315.82
 6.82894   8592.75
 6.8383   8984.75
 6.84766   10458.3
 6.85702   14288.2
 6.86638   24089.4
 6.87574   29007.3
 6.8851   27833.7
 6.89446   20997.9
 6.90382   11848.5
 6.91318   10000.5
 6.92254   9147.49
 6.9319   8716.61
 6.94126   8440.4
 6.95062   8471.24
 6.95998   8406.88
 6.96934   8222.97
 6.9787   8435.15
 6.98806   8596.25
 6.99742   8815.38
 7.00678   9337.27
 7.01614   9810.38
 7.0255   10232.7
 7.03486   10320.4
 7.04422   9837.62
 7.05358   9222.41
 7.06294   8709.54
 7.0723   8176.33
 7.08166   7768.2
 7.09102   7480.23
 7.10038   7360.23
 7.10974   7211.45
 7.1191   7145.45
 7.12846   7085.66
 7.13782   7053.65
 7.14718   7011.28
 7.15654   6963.77
 7.1659   6942.57
 7.17526   6933.88
 7.18462   6882.42
 7.19398   6855.48
 7.20334   6800.71
 7.2127   6795.97
 7.22206   6759.33
 7.23142   6734.47
 7.24078   6721.64
 7.25014   6749.49
 7.2595   6717.85
 7.26886   6709.24
 7.27822   6696.29
 7.28758   6695.64
 7.29694   6662.45
 7.3063   6642
 7.31566   6637.18
 7.32502   6653.02
 7.33438   6638.76
 7.34374   6643.29
 7.3531   6645.38
 7.36246   6621.97
 7.37182   6596.35
 7.38118   6566.6
 7.39054   6539.1
 7.3999   6506.2
 7.40926   6480.8
 7.41862   6447.59
 7.42798   6437.31
 7.43734   6436.03
 7.4467   6431.39
 7.45606   6436.87
 7.46542   6437.41
 7.47478   6454.54
 7.48414   6465.12
 7.4935   6463.63
 7.50286   6502.72
 7.51222   6531.97
 7.52158   6595.28
 7.53094   6673.4
 7.5403   6807.42
 7.54966   7011.03
 7.55902   7368.88
 7.56838   7927.15
 7.57774   8765.18
 7.5871   9863.15
 7.59646   11047.6
 7.60582   11838.8
 7.61518   11854.1
 7.62454   11030.5
 7.6339   9783.92
 7.64326   8626.53
 7.65262   7796.84
 7.66198   7240.18
 7.67134   6921.58
 7.6807   6716.71
 7.69006   6587
 7.69942   6490.5
 7.70878   6449.21
 7.71814   6394.17
 7.7275   6368.55
 7.73686   6354.89
 7.74622   6335.6
 7.75558   6313.77
 7.76494   6313.1
 7.7743   6346.89
 7.78366   6360.57
 7.79302   6362.4
 7.80238   6374.54
 7.81174   6376.98
 7.8211   6407.23
 7.83046   6433.13
 7.83982   6449.51
 7.84918   6441.4
 7.85854   6523.27
 7.8679   6482.78
 7.87726   6513.43
 7.88662   6597.75
 7.89598   6544.48
 7.90534   6686.93
 7.9147   7443.96
 7.92406   7701.2
 7.93342   9966.31
 7.94278   14163.9
 7.95214   9354.46
 7.9615   9025.34
 7.97086   7211.46
 7.98022   6772.74
 7.98958   6688.43
 7.99894   6566.24
 8.0083   6526.37
 8.01766   6611.66
 8.02702   6636.67
 8.03638   6831.87
 8.04574   7169.27
 8.0551   7744.44
 8.06446   8671.9
 8.07382   9766.75
 8.08318   10682.2
 8.09254   11071.1
 8.1019   10809.8
 8.11126   10032.1
 8.12062   9112.41
 8.12998   8272.21
 8.13934   7547.35
 8.1487   7038.49
 8.15806   6657.68
 8.16742   6385.82
 8.17678   6200.15
 8.18614   6044.63
 8.1955   5914.85
 8.20486   5847.61
 8.21422   5784.32
 8.22358   5745.92
 8.23294   5703.17
 8.2423   5676.64
 8.25166   5630.89
 8.26102   5606.19
 8.27038   5567.14
 8.27974   5556.73
 8.2891   5543.53
 8.29846   5550.76
 8.30782   5544.47
 8.31718   5543.95
 8.32654   5565.35
 8.3359   5606.63
 8.34526   5677.55
 8.35462   5873.35
 8.36398   6144.21
 8.37334   6698.09
 8.3827   7710.47
 8.39206   9073.8
 8.40142   10680.6
 8.41078   11142.4
 8.42014   9864.89
 8.4295   8013.98
 8.43886   6881.22
 8.44822   6170.24
 8.45758   5841.64
 8.46694   5633.98
 8.4763   5499.56
 8.48566   5408.86
 8.49502   5352.11
 8.50438   5313.41
 8.51374   5271.92
 8.5231   5253.45
 8.53246   5220.73
 8.54182   5188.84
 8.55118   5181.58
 8.56054   5159.87
 8.5699   5126.53
 8.57926   5137.27
 8.58862   5121.37
 8.59798   5120.17
 8.60734   5113.94
 8.6167   5106.16
 8.62606   5099.16
 8.63542   5100.41
 8.64478   5099.54
 8.65414   5086.12
 8.6635   5075.07
 8.67286   5076.3
 8.68222   5064.99
 8.69158   5055.52
 8.70094   5070.42
 8.7103   5056.22
 8.71966   5068.28
 8.72902   5070.38
 8.73838   5081.07
 8.74774   5077.21
 8.7571   5105.55
 8.76646   5158.19
 8.77582   5188.04
 8.78518   5271.45
 8.79454   5395.39
 8.8039   5548.28
 8.81326   5773.32
 8.82262   6071.34
 8.83198   6398.55
 8.84134   6748.24
 8.8507   7246.47
 8.86006   7811.4
 8.86942   8362.93
 8.87878   6984.45
 8.88814   6250.9
 8.8975   5726.94
 8.90686   5342.21
 8.91622   5202.58
 8.92558   5163.51
 8.93494   5133.45
 8.9443   5148.36
 8.95366   5153.24
 8.96302   5202.44
 8.97238   5267.24
 8.98174   5335.01
 8.9911   5436.22
 9.00046   5519.91
 9.00982   5581.86
 9.01918   5593.93
 9.02854   5523.62
 9.0379   5399.43
 9.04726   5262.8
 9.05662   5139.51
 9.06598   5053.85
 9.07534   4988.93
 9.0847   4952.41
 9.09406   4926.14
 9.10342   4923.14
 9.11278   4908.3
 9.12214   4909.02
 9.1315   4911.21
 9.14086   4917.82
 9.15022   4909.82
 9.15958   4923.12
 9.16894   4940.82
 9.1783   4961.32
 9.18766   4977.63
 9.19702   5040.01
 9.20638   5127.36
 9.21574   5264.26
 9.2251   5490.11
 9.23446   5810.17
 9.24382   6222.13
 9.25318   6616.41
 9.26254   6879.16
 9.2719   6886.55
 9.28126   6650.02
 9.29062   6292.03
 9.29998   5912.8
 9.30934   5613.92
 9.3187   5400.01
 9.32806   5276.82
 9.33742   5218.4
 9.34678   5209.15
 9.35614   5252.96
 9.3655   5301.64
 9.37486   5329.86
 9.38422   5327.66
 9.39358   5330.32
 9.40294   5307.87
 9.4123   5326.26
 9.42166   5377.91
 9.43102   5487
 9.44038   5665.48
 9.44974   5887.84
 9.4591   6115.63
 9.46846   6310.98
 9.47782   6416.02
 9.48718   6429.12
 9.49654   6327.27
 9.5059   6130.66
 9.51526   5887.38
 9.52462   5639.21
 9.53398   5416.5
 9.54334   5274.16
 9.5527   5167.93
 9.56206   5090.62
 9.57142   5046.39
 9.58078   5006.94
 9.59014   5001.43
 9.5995   4988.2
 9.60886   4989.64
 9.61822   4974.21
 9.62758   4980.39
 9.63694   4980.95
 9.6463   4981.09
 9.65566   4993.23
 9.66502   5017.7
 9.67438   5045.4
 9.68374   5123.19
 9.6931   5357.09
 9.70246   6179.48
 9.71182   6682.91
 9.72118   6834.68
 9.73054   6058.53
 9.7399   5710.2
 9.74926   5374.56
 9.75862   5351.79
 9.76798   5471.47
 9.77734   5708
 9.7867   6050.47
 9.79606   6470.88
 9.80542   6910.4
 9.81478   7279.39
 9.82414   7560.74
 9.8335   8028.45
 9.84286   8972.03
 9.85222   10429.8
 9.86158   12014.6
 9.87094   11325.5
 9.8803   9137.8
 9.88966   7121.17
 9.89902   6162.4
 9.90838   5576.04
 9.91774   5342.8
 9.9271   5236.36
 9.93646   5181.63
 9.94582   5128.37
 9.95518   5116.03
 9.96454   5114.69
 9.9739   5092.45
 9.98326   5097.26
 9.99262   5101.54
 10.002   5098.66
 10.0113   5102.18
 10.0207   5115.56
 10.0301   5102.85
 10.0394   5116.09
 10.0488   5147.78
 10.0581   5176.22
 10.0675   5206.43
 10.0769   5227.29
 10.0862   5211.41
 10.0956   5197.04
 10.1049   5167.2
 10.1143   5137.57
 10.1237   5119.81
 10.133   5092.96
 10.1424   5091.72
 10.1517   5079.81
 10.1611   5070.81
 10.1705   5077.19
 10.1798   5069.95
 10.1892   5059.11
 10.1985   5074.64
 10.2079   5095.17
 10.2173   5101.16
 10.2266   5092.61
 10.236   5108.19
 10.2453   5120.26
 10.2547   5180.48
 10.2641   5293.61
 10.2734   5457.5
 10.2828   5382.35
 10.2921   5664.15
 10.3015   5821.48
 10.3109   5797.59
 10.3202   5608.63
 10.3296   5801.2
 10.3389   5380.8
 10.3483   5246.55
 10.3577   5168.23
 10.367   5160.61
 10.3764   5126.09
 10.3857   5119.01
 10.3951   5112.91
 10.4045   5141.63
 10.4138   5117.29
 10.4232   5115.67
 10.4325   5106.97
 10.4419   5164.95
 10.4513   5143.14
 10.4606   5188.09
 10.47   5256.32
 10.4793   5404.33
 10.4887   5680.33
 10.4981   6043.78
 10.5074   5912.72
 10.5168   5607.96
 10.5261   5366.31
 10.5355   5280
 10.5449   5234.95
 10.5542   5245.65
 10.5636   5198.23
 10.5729   5142.02
 10.5823   5104.42
 10.5917   5098.34
 10.601   5052.05
 10.6104   5031.97
 10.6197   5028.28
 10.6291   5036.99
 10.6385   5017.2
 10.6478   4997.88
 10.6572   5005.58
 10.6665   5019.09
 10.6759   5039.82
 10.6853   5065.37
 10.6946   5128.92
 10.704   5211.58
 10.7133   5291.45
 10.7227   5347.38
 10.7321   5368.51
 10.7414   5341.42
 10.7508   5284.58
 10.7601   5182.17
 10.7695   5106.16
 10.7789   5041.9
 10.7882   4998.11
 10.7976   4955.48
 10.8069   4919.19
 10.8163   4906.61
 10.8257   4896.11
 10.835   4885.15
 10.8444   4883.28
 10.8537   4856.47
 10.8631   4857.65
 10.8725   4840.04
 10.8818   4819.45
 10.8912   4803.98
 10.9005   4792.26
 10.9099   4783.94
 10.9193   4773.83
 10.9286   4762.82
 10.938   4761.92
 10.9473   4754.98
 10.9567   4747.39
 10.9661   4736.51
 10.9754   4735.79
 10.9848   4740.24
 10.9941   4734.06
 11.0035   4734.59
 11.0129   4743.2
 11.0222   4757.1
 11.0316   4769.37
 11.0409   4776.58
 11.0503   4807.85
 11.0597   4866.02
 11.069   4926.13
 11.0784   5044.41
 11.0877   5204.58
 11.0971   5408.64
 11.1065   5580.49
 11.1158   5714.4
 11.1252   5724.03
 11.1345   5617.07
 11.1439   5443.27
 11.1533   5246.44
 11.1626   5071.35
 11.172   4952.5
 11.1813   4865.07
 11.1907   4787.94
 11.2001   4735.2
 11.2094   4849.5
 11.2188   5035.8
 11.2281   4733.12
 11.2375   4737.84
 11.2469   4746.59
 11.2562   4737.76
 11.2656   4715.55
 11.2749   4691.82
 11.2843   4688.93
 11.2937   4677
 11.303   4651.36
 11.3124   4619.86
 11.3217   4584.58
 11.3311   4568.23
 11.3405   4543.93
 11.3498   4529.58
 11.3592   4527.51
 11.3685   4528.83
 11.3779   4531.83
 11.3873   4520.16
 11.3966   4521.59
 11.406   4532.68
 11.4153   4530.87
 11.4247   4539.18
 11.4341   4553.94
 11.4434   4580.6
 11.4528   4621.8
 11.4621   4639.16
 11.4715   4691.44
 11.4809   4760.71
 11.4902   4848.8
 11.4996   4923.81
 11.5089   4979.37
 11.5183   4999.72
 11.5277   4975.77
 11.537   4904.83
 11.5464   4798.7
 11.5557   4698.49
 11.5651   4616.26
 11.5745   4558.99
 11.5838   4497.24
 11.5932   4465.82
 11.6025   4456.49
 11.6119   4439.22
 11.6213   4439.31
 11.6306   4425.04
 11.64   4406.98
 11.6493   4403.41
 11.6587   4384.53
 11.6681   4368.08
 11.6774   4364.97
 11.6868   4347.63
 11.6961   4353.38
 11.7055   4349.47
 11.7149   4336
 11.7242   4337.41
 11.7336   4323.42
 11.7429   4322.29
 11.7523   4313.68
 11.7617   4321.69
 11.771   4315.68
 11.7804   4307.31
 11.7897   4305.45
 11.7991   4299.7
 11.8085   4302
 11.8178   4295.89
 11.8272   4292.01
 11.8365   4292.95
 11.8459   4296.15
 11.8553   4311.32
 11.8646   4330.37
 11.874   4368.22
 11.8833   4390.74
 11.8927   4476.34
 11.9021   4554.1
 11.9114   4638.86
 11.9208   4490.67
 11.9301   4420.33
 11.9395   4418.83
 11.9489   4394.8
 11.9582   4410.84
 11.9676   4454.06
 11.9769   4524.26
 11.9863   4579.03
 11.9957   4633.85
 12.005   4647.36
 12.0144   4628.09
 12.0237   4576.48
 12.0331   4514.09
 12.0425   4484.15
 12.0518   4466.13
 12.0612   4473.09
 12.0705   4518.51
 12.0799   4603.6
 12.0893   4729.4
 12.0986   4882.95
 12.108   5058.53
 12.1173   5207.61
 12.1267   5265.88
 12.1361   5206.74
 12.1454   5069.71
 12.1548   4875.63
 12.1641   4691.6
 12.1735   4526.12
 12.1829   4408.51
 12.1922   4322.7
 12.2016   4261.29
 12.2109   4213.16
 12.2203   4178.2
 12.2297   4151.04
 12.239   4137.96
 12.2484   4115.15
 12.2577   4107.22
 12.2671   4089.8
 12.2765   4088.24
 12.2858   4093.25
 12.2952   4072.28
 12.3045   4077.12
 12.3139   4082.36
 12.3233   4091.03
 12.3326   4096.47
 12.342   4107.45
 12.3513   4138.77
 12.3607   4172.71
 12.3701   4214
 12.3794   4270.88
 12.3888   4301.1
 12.3981   4343.16
 12.4075   4381.68
 12.4169   4408.2
 12.4262   4442.6
 12.4356   4495.79
 12.4449   4569.27
 12.4543   4631.83
 12.4637   4689.46
 12.473   4719.7
 12.4824   4707.37
 12.4917   4657.78
 12.5011   4572.02
 12.5105   4470.14
 12.5198   4368.79
 12.5292   4276.18
 12.5385   4203.47
 12.5479   4162.87
 12.5573   4111.58
 12.5666   4088.71
 12.576   4064.79
 12.5853   4041.28
 12.5947   4011.67
 12.6041   4003.62
 12.6134   3986.22
 12.6228   3992.11
 12.6321   3999.11
 12.6415   4013.36
 12.6509   4030.31
 12.6602   4070.5
 12.6696   4109.7
 12.6789   4184.89
 12.6883   4275.6
 12.6977   4412.88