File: docs/GuiliangJun25_tutorial_output/integrals/MA2b-00004_spotsmasked.chi
MA2b-00004.tif Azm= 0.00
2-Theta Angle (Degrees)
Intensity
       2500
 1.00702   7912.27
 1.01638   7851.68
 1.02574   7791.69
 1.0351   7729.98
 1.04446   7682.13
 1.05382   7665.07
 1.06318   7587.16
 1.07254   7539.91
 1.0819   7513.49
 1.09126   7456.96
 1.10062   7433.78
 1.10998   7420.72
 1.11934   7371.56
 1.1287   7340.42
 1.13806   7299.73
 1.14742   7269.87
 1.15678   7260.78
 1.16614   7237.03
 1.1755   7173.45
 1.18486   7191.17
 1.19422   7175.44
 1.20358   7178.8
 1.21294   7115.42
 1.2223   7144.42
 1.23166   7135.02
 1.24102   7099.6
 1.25038   7121.17
 1.25974   7130.66
 1.2691   7104.71
 1.27846   7083.25
 1.28782   7132.19
 1.29718   7130.01
 1.30654   7137.55
 1.3159   7100.56
 1.32526   7134.82
 1.33462   7140.52
 1.34398   7174.53
 1.35334   7131.54
 1.3627   7177.28
 1.37206   7167.94
 1.38142   7174.43
 1.39078   7225.38
 1.40014   7252.62
 1.4095   7296.32
 1.41886   7339.75
 1.42822   7369.28
 1.43758   7392.03
 1.44694   7482.55
 1.4563   7515.84
 1.46566   7568.09
 1.47502   7574.95
 1.48438   7639.88
 1.49374   7702.07
 1.5031   7746.5
 1.51246   7752.18
 1.52182   7786.97
 1.53118   7772.7
 1.54054   7767.63
 1.5499   7777.62
 1.55926   7763.25
 1.56862   7729.26
 1.57798   7695.88
 1.58734   7681.77
 1.5967   7705.27
 1.60606   7710.33
 1.61542   7714.59
 1.62478   7700.9
 1.63414   7693.89
 1.6435   7697.76
 1.65286   7713.07
 1.66222   7699.73
 1.67158   7698.64
 1.68094   7721.06
 1.6903   7702.37
 1.69966   7716.3
 1.70902   7729.3
 1.71838   7719.83
 1.72774   7739.98
 1.7371   7734.1
 1.74646   7735.58
 1.75582   7782.98
 1.76518   7776.71
 1.77454   7772.78
 1.7839   7828.93
 1.79326   7834.61
 1.80262   7860.56
 1.81198   7909.05
 1.82134   7929.52
 1.8307   7972.79
 1.84006   7991.74
 1.84942   8017.54
 1.85878   8084.03
 1.86814   8103.96
 1.8775   8133.01
 1.88686   8209.52
 1.89622   8242.05
 1.90558   8284.1
 1.91494   8328.09
 1.9243   8378.49
 1.93366   8420.59
 1.94302   8499.45
 1.95238   8515.33
 1.96174   8597.91
 1.9711   8637.25
 1.98046   8678.08
 1.98982   8727.09
 1.99918   8784.8
 2.00854   8829.13
 2.0179   8890.05
 2.02726   8932.26
 2.03662   8993.4
 2.04598   9049.05
 2.05534   9115.95
 2.0647   9188.47
 2.07406   9320.4
 2.08342   9440.58
 2.09278   9717.09
 2.10214   10179.8
 2.1115   11009.4
 2.12086   12743.4
 2.13022   16053.3
 2.13958   20745.6
 2.14894   25051.9
 2.1583   26619.4
 2.16766   25817.8
 2.17702   23762.5
 2.18638   21289.5
 2.19574   18710.9
 2.2051   16335.9
 2.21446   14673.1
 2.22382   13622.4
 2.23318   12955
 2.24254   12457.1
 2.2519   11861.7
 2.26126   11338.1
 2.27062   10864.7
 2.27998   10604.6
 2.28934   10523.7
 2.2987   10472.5
 2.30806   10467.1
 2.31742   10495
 2.32678   10540.7
 2.33614   10583.3
 2.3455   10624.4
 2.35486   10698.9
 2.36422   10744.6
 2.37358   10812.4
 2.38294   10858.1
 2.3923   10948.3
 2.40166   11012
 2.41102   11087.2
 2.42038   11166
 2.42974   11215.6
 2.4391   11276.5
 2.44846   11368.6
 2.45782   11415.5
 2.46718   11501.8
 2.47654   11572.5
 2.4859   11640.6
 2.49526   11730.9
 2.50462   11803.2
 2.51398   11888.1
 2.52334   11948.5
 2.5327   12026
 2.54206   12101.9
 2.55142   12145.1
 2.56078   12206.4
 2.57014   12295.4
 2.5795   12333.4
 2.58886   12397.2
 2.59822   12463.1
 2.60758   12520.6
 2.61694   12544.1
 2.6263   12590
 2.63566   12644.4
 2.64502   12665.2
 2.65438   12709.2
 2.66374   12716.2
 2.6731   12736.9
 2.68246   12772.4
 2.69182   12782.8
 2.70118   12796.5
 2.71054   12821.2
 2.7199   12814.7
 2.72926   12819.1
 2.73862   12837
 2.74798   12800.4
 2.75734   12790.9
 2.7667   12788.3
 2.77606   12776.2
 2.78542   12779
 2.79478   12744.5
 2.80414   12745.6
 2.8135   12705.9
 2.82286   12663.2
 2.83222   12644.6
 2.84158   12601.2
 2.85094   12600.8
 2.8603   12556.5
 2.86966   12532.6
 2.87902   12502.4
 2.88838   12458.7
 2.89774   12429.2
 2.9071   12391.8
 2.91646   12351.8
 2.92582   12311.7
 2.93518   12278.6
 2.94454   12255.9
 2.9539   12201.7
 2.96326   12148.2
 2.97262   12114.6
 2.98198   12057.1
 2.99134   12030.4
 3.0007   11956.5
 3.01006   11885.3
 3.01942   11865.1
 3.02878   11809.2
 3.03814   11768.6
 3.0475   11686
 3.05686   11619.3
 3.06622   11556.8
 3.07558   11515.6
 3.08494   11489
 3.0943   11434.1
 3.10366   11382.1
 3.11302   11323.1
 3.12238   11297.3
 3.13174   11242.8
 3.1411   11225.7
 3.15046   11194.7
 3.15982   11145.5
 3.16918   11114.4
 3.17854   11105.6
 3.1879   11084.4
 3.19726   11043.3
 3.20662   11012
 3.21598   10955.9
 3.22534   10945.8
 3.2347   10906.7
 3.24406   10873.9
 3.25342   10857.7
 3.26278   10859.1
 3.27214   10806.6
 3.2815   10783.2
 3.29086   10764.4
 3.30022   10756.6
 3.30958   10751.5
 3.31894   10754.5
 3.3283   10735.5
 3.33766   10732.6
 3.34702   10702.6
 3.35638   10695.1
 3.36574   10713.4
 3.3751   10690.2
 3.38446   10698.6
 3.39382   10713.7
 3.40318   10725.7
 3.41254   10720.5
 3.4219   10710.3
 3.43126   10692.7
 3.44062   10730.2
 3.44998   10760.1
 3.45934   10718.8
 3.4687   10704.9
 3.47806   10753.7
 3.48742   10732.4
 3.49678   10680.9
 3.50614   10712.3
 3.5155   10732.2
 3.52486   10697.5
 3.53422   10696.6
 3.54358   10736.6
 3.55294   10722.8
 3.5623   10707.2
 3.57166   10720.5
 3.58102   10742.9
 3.59038   10719.7
 3.59974   10662.5
 3.6091   10708.4
 3.61846   10713.9
 3.62782   10639.3
 3.63718   10616.5
 3.64654   10679.6
 3.6559   10707.7
 3.66526   10634.3
 3.67462   10554.1
 3.68398   10602.8
 3.69334   10561
 3.7027   10422.3
 3.71206   10375.5
 3.72142   10449.8
 3.73078   10296.6
 3.74014   10189.8
 3.7495   10147.2
 3.75886   10083
 3.76822   9944.35
 3.77758   9799.93
 3.78694   9823.9
 3.7963   9820.45
 3.80566   9657.2
 3.81502   9557.79
 3.82438   9615.35
 3.83374   9543.3
 3.8431   9355.77
 3.85246   9359.33
 3.86182   9357.06
 3.87118   9344.64
 3.88054   9170.66
 3.8899   9159.52
 3.89926   9144.89
 3.90862   8971.44
 3.91798   8939.64
 3.92734   8949.2
 3.9367   8879.48
 3.94606   8781.49
 3.95542   8795.61
 3.96478   8727.82
 3.97414   8658.19
 3.9835   8630.85
 3.99286   8576.94
 4.00222   8588.5
 4.01158   8531.4
 4.02094   8403
 4.0303   8408.58
 4.03966   8448.43
 4.04902   8297.89
 4.05838   8259.56
 4.06774   8295.54
 4.0771   8257.36
 4.08646   8166.27
 4.09582   8106.42
 4.10518   8109.25
 4.11454   8122.88
 4.1239   8015.14
 4.13326   7988.99
 4.14262   8036.79
 4.15198   7967.9
 4.16134   7882.75
 4.1707   7869.26
 4.18006   7901.68
 4.18942   7890.06
 4.19878   7818.95
 4.20814   7856.59
 4.2175   8002.84
 4.22686   7861.19
 4.23622   7779.69
 4.24558   7892.15
 4.25494   7988.76
 4.2643   8088.92
 4.27366   8479.73
 4.28302   8780.49
 4.29238   9119.62
 4.30174   9206.78
 4.3111   9215.53
 4.32046   9141.1
 4.32982   8979.13
 4.33918   8868.46
 4.34854   8819.73
 4.3579   8791.18
 4.36726   8634.92
 4.37662   8465.43
 4.38598   8323.73
 4.39534   8177
 4.4047   8055.87
 4.41406   7892.77
 4.42342   7813
 4.43278   7807.78
 4.44214   7703.55
 4.4515   7610.19
 4.46086   7603.63
 4.47022   7584.72
 4.47958   7506.36
 4.48894   7463.3
 4.4983   7430.29
 4.50766   7322.5
 4.51702   7179.66
 4.52638   7134.64
 4.53574   7091.58
 4.5451   7019.21
 4.55446   6959.06
 4.56382   6938.36
 4.57318   6932.59
 4.58254   6886.82
 4.5919   6842.38
 4.60126   6814.06
 4.61062   6775.64
 4.61998   6745.12
 4.62934   6734.55
 4.6387   6719.67
 4.64806   6676.18
 4.65742   6628.97
 4.66678   6630.88
 4.67614   6618.99
 4.6855   6576.85
 4.69486   6609.59
 4.70422   6608.13
 4.71358   6659.46
 4.72294   6746.57
 4.7323   6817.79
 4.74166   6910.08
 4.75102   7027.16
 4.76038   7143.13
 4.76974   7327.73
 4.7791   7621.52
 4.78846   8004.32
 4.79782   8422.35
 4.80718   8830.57
 4.81654   9095.17
 4.8259   9256.74
 4.83526   9213.69
 4.84462   8936.06
 4.85398   8472.76
 4.86334   7952.62
 4.8727   7526.89
 4.88206   7317.38
 4.89142   7280.01
 4.90078   7375.42
 4.91014   7570.3
 4.9195   7766.91
 4.92886   7954.77
 4.93822   8125.94
 4.94758   8320.15
 4.95694   8543.46
 4.9663   8813.87
 4.97566   9072.93
 4.98502   9280.06
 4.99438   9286.93
 5.00374   9087.14
 5.0131   8673.22
 5.02246   8181.25
 5.03182   7648.1
 5.04118   7243.45
 5.05054   6939.57
 5.0599   6753.87
 5.06926   6702.45
 5.07862   6795.91
 5.08798   7042.31
 5.09734   7679.22
 5.1067   9385.09
 5.11606   12647.9
 5.12542   20834.4
 5.13478   39167
 5.14414   51112.9
 5.1535   41359.6
 5.16286   25884.9
 5.17222   14671.6
 5.18158   9359.39
 5.19094   7278.57
 5.2003   6712.9
 5.20966   6410.31
 5.21902   6252.94
 5.22838   6106.59
 5.23774   6060.83
 5.2471   6004.69
 5.25646   5967.61
 5.26582   5916.61
 5.27518   5892.8
 5.28454   5874.45
 5.2939   5869.29
 5.30326   5853.78
 5.31262   5845.95
 5.32198   5832.27
 5.33134   5834.01
 5.3407   5810.78
 5.35006   5800.99
 5.35942   5809.59
 5.36878   5808.21
 5.37814   5802.67
 5.3875   5804.02
 5.39686   5833.83
 5.40622   5845.85
 5.41558   5850.24
 5.42494   5876.81
 5.4343   5913.62
 5.44366   5940.61
 5.45302   5987.3
 5.46238   6055.37
 5.47174   6136.04
 5.4811   6271.16
 5.49046   6425.36
 5.49982   6667.87
 5.50918   7071.72
 5.51854   7640.7
 5.5279   8414.69
 5.53726   9442.54
 5.54662   10575.8
 5.55598   11516.6
 5.56534   11943.8
 5.5747   11845.6
 5.58406   11332.6
 5.59342   10576.7
 5.60278   9791.62
 5.61214   9101.18
 5.6215   8507.15
 5.63086   7980.66
 5.64022   7585.71
 5.64958   7235.46
 5.65894   6949.29
 5.6683   6700.01
 5.67766   6515.32
 5.68702   6365.06
 5.69638   6241.2
 5.70574   6154.19
 5.7151   6094.82
 5.72446   6079.37
 5.73382   6044.18
 5.74318   6053.1
 5.75254   6054.29
 5.7619   6068.08
 5.77126   6047.43
 5.78062   6007.3
 5.78998   6018.07
 5.79934   6010.23
 5.8087   5987.8
 5.81806   6000.86
 5.82742   6016.44
 5.83678   6031.61
 5.84614   6070.34
 5.8555   6131.39
 5.86486   6204.61
 5.87422   6311.13
 5.88358   6464.73
 5.89294   6646.94
 5.9023   6999.87
 5.91166   7738.76
 5.92102   9166.77
 5.93038   11957.8
 5.93974   14124.7
 5.9491   13961.7
 5.95846   11914.3
 5.96782   9944.03
 5.97718   8964.63
 5.98654   8586.05
 5.9959   8252.59
 6.00526   7929.09
 6.01462   7599.86
 6.02398   7289.98
 6.03334   6957.51
 6.0427   6708.54
 6.05206   6518.27
 6.06142   6373.27
 6.07078   6211.17
 6.08014   6128.73
 6.0895   6062.77
 6.09886   6004.85
 6.10822   5948.24
 6.11758   5932.73
 6.12694   5913.05
 6.1363   5893.71
 6.14566   5860.77
 6.15502   5859.12
 6.16438   5866.71
 6.17374   5848.39
 6.1831   5837.59
 6.19246   5840.65
 6.20182   5863.56
 6.21118   5854.44
 6.22054   5857.23
 6.2299   5872.18
 6.23926   5872.77
 6.24862   5874.88
 6.25798   5869.46
 6.26734   5884.3
 6.2767   5897.26
 6.28606   5888.3
 6.29542   5901.62
 6.30478   5921.21
 6.31414   5919.83
 6.3235   5902.2
 6.33286   5926.64
 6.34222   5943.85
 6.35158   5940.94
 6.36094   5926.68
 6.3703   5930.44
 6.37966   5936.53
 6.38902   5945.09
 6.39838   5940.58
 6.40774   5970.48
 6.4171   5996.16
 6.42646   5983.78
 6.43582   5988.42
 6.44518   6011.61
 6.45454   5997.13
 6.4639   6002.37
 6.47326   5998.55
 6.48262   6019.45
 6.49198   6018.39
 6.50134   6007.56
 6.5107   6027.02
 6.52006   6068.33
 6.52942   6059.8
 6.53878   6077.42
 6.54814   6112.2
 6.5575   6134.28
 6.56686   6129.33
 6.57622   6123.85
 6.58558   6157.14
 6.59494   6187.26
 6.6043   6198.51
 6.61366   6220.43
 6.62302   6238.6
 6.63238   6273.6
 6.64174   6268.93
 6.6511   6294.99
 6.66046   6338.05
 6.66982   6340.14
 6.67918   6373.47
 6.68854   6342.61
 6.6979   6351.52
 6.70726   6427.33
 6.71662   6439.97
 6.72598   6483.28
 6.73534   6545.32
 6.7447   6553.59
 6.75406   6579.05
 6.76342   6608.82
 6.77278   6698.1
 6.78214   6710.21
 6.7915   6709.17
 6.80086   6696.9
 6.81022   6734.64
 6.81958   6768.56
 6.82894   6767.79
 6.8383   6791.09
 6.84766   6896.87
 6.85702   6922.41
 6.86638   7010.77
 6.87574   7130.68
 6.8851   7217.34
 6.89446   7363.33
 6.90382   7537.72
 6.91318   7657.73
 6.92254   7883.34
 6.9319   8014.87
 6.94126   8058.63
 6.95062   8166.09
 6.95998   8175.15
 6.96934   8109.12
 6.9787   8102.9
 6.98806   8082.56
 6.99742   8024.01
 7.00678   7990.49
 7.01614   7920.77
 7.0255   7858.16
 7.03486   7777.6
 7.04422   7704.91
 7.05358   7606.42
 7.06294   7578.45
 7.0723   7452.82
 7.08166   7253.29
 7.09102   7076.37
 7.10038   6993.65
 7.10974   6905.37
 7.1191   6829.54
 7.12846   6799.29
 7.13782   6764.06
 7.14718   6737.37
 7.15654   6704.28
 7.1659   6676.4
 7.17526   6702.01
 7.18462   6676.94
 7.19398   6659.24
 7.20334   6634.76
 7.2127   6653.85
 7.22206   6617.32
 7.23142   6620.1
 7.24078   6620
 7.25014   6650.59
 7.2595   6655.79
 7.26886   6662.59
 7.27822   6658.33
 7.28758   6659.51
 7.29694   6639.03
 7.3063   6651.94
 7.31566   6672.57
 7.32502   6698.79
 7.33438   6744.34
 7.34374   6792.64
 7.3531   6813.26
 7.36246   6850.95
 7.37182   6891.02
 7.38118   6897.28
 7.39054   6927.56
 7.3999   6959.61
 7.40926   6971.92
 7.41862   6998.66
 7.42798   7059.31
 7.43734   7114.36
 7.4467   7165.61
 7.45606   7210.61
 7.46542   7263.12
 7.47478   7296.16
 7.48414   7285.47
 7.4935   7303.73
 7.50286   7315.17
 7.51222   7324.14
 7.52158   7316.37
 7.53094   7326.47
 7.5403   7340.5
 7.54966   7332.83
 7.55902   7323.45
 7.56838   7303.46
 7.57774   7290.92
 7.5871   7233.53
 7.59646   7170.91
 7.60582   7070.66
 7.61518   6969.4
 7.62454   6786.97
 7.6339   6644
 7.64326   6495.04
 7.65262   6420.91
 7.66198   6322.48
 7.67134   6253.2
 7.6807   6207.84
 7.69006   6171.51
 7.69942   6124.54
 7.70878   6100.52
 7.71814   6057.66
 7.7275   6034.64
 7.73686   6019.59
 7.74622   6012.1
 7.75558   5955.04
 7.76494   5943.38
 7.7743   5927.79
 7.78366   5896.98
 7.79302   5876.69
 7.80238   5856.04
 7.81174   5844.55
 7.8211   5818.44
 7.83046   5757.18
 7.83982   5770.88
 7.84918   5761.56
 7.85854   5749.67
 7.8679   5709.92
 7.87726   5720.86
 7.88662   5686.85
 7.89598   5674.62
 7.90534   5653.41
 7.9147   5638.59
 7.92406   5648.18
 7.93342   5614.84
 7.94278   5599.4
 7.95214   5609.37
 7.9615   5604.39
 7.97086   5584.42
 7.98022   5552.42
 7.98958   5556.35
 7.99894   5572.88
 8.0083   5542.06
 8.01766   5520.92
 8.02702   5530.9
 8.03638   5543.58
 8.04574   5524.11
 8.0551   5514.94
 8.06446   5549.18
 8.07382   5598.12
 8.08318   5625.7
 8.09254   5672.28
 8.1019   5768.91
 8.11126   5831.31
 8.12062   5825.37
 8.12998   5844.28
 8.13934   5859.18
 8.1487   5893.54
 8.15806   5897.75
 8.16742   5944.68
 8.17678   6014.78
 8.18614   6104.89
 8.1955   6226.8
 8.20486   6374.82
 8.21422   6554.55
 8.22358   6750.94
 8.23294   6921.13
 8.2423   7052.73
 8.25166   7171.32
 8.26102   7229.73
 8.27038   7255.56
 8.27974   7255.9
 8.2891   7211.98
 8.29846   7094.38
 8.30782   6904.97
 8.31718   6657.13
 8.32654   6393.43
 8.3359   6170.26
 8.34526   5983.3
 8.35462   5855.45
 8.36398   5793.55
 8.37334   5931.72
 8.3827   6349.99
 8.39206   7116.99
 8.40142   8170.22
 8.41078   8545.67
 8.42014   7885.5
 8.4295   6750.37
 8.43886   6211.85
 8.44822   5947.96
 8.45758   5895.71
 8.46694   5912.94
 8.4763   5972.51
 8.48566   6049.29
 8.49502   6148.28
 8.50438   6233.67
 8.51374   6321.28
 8.5231   6415.46
 8.53246   6519.09
 8.54182   6591.3
 8.55118   6674.82
 8.56054   6705.34
 8.5699   6724.18
 8.57926   6716.06
 8.58862   6664.18
 8.59798   6577.72
 8.60734   6470.31
 8.6167   6347.84
 8.62606   6218.97
 8.63542   6094.43
 8.64478   5988.73
 8.65414   5872.23
 8.6635   5784.09
 8.67286   5714.69
 8.68222   5649.49
 8.69158   5608.99
 8.70094   5554.24
 8.7103   5532.87
 8.71966   5497.05
 8.72902   5464.98
 8.73838   5445.85
 8.74774   5429
 8.7571   5414.14
 8.76646   5388.05
 8.77582   5354.3
 8.78518   5343.17
 8.79454   5322.03
 8.8039   5286.75
 8.81326   5277.23
 8.82262   5236.24
 8.83198   5225.96
 8.84134   5184.35
 8.8507   5146.71
 8.86006   5108.22
 8.86942   5063.19
 8.87878   5039.15
 8.88814   5014.42
 8.8975   4996.92
 8.90686   4978.03
 8.91622   4988.09
 8.92558   4971.53
 8.93494   4964.41
 8.9443   4960
 8.95366   4965.91
 8.96302   4956.93
 8.97238   4955.78
 8.98174   4969.32
 8.9911   4969.94
 9.00046   4954.67
 9.00982   4944.37
 9.01918   4942.51
 9.02854   4933.87
 9.0379   4924.76
 9.04726   4911.25
 9.05662   4897.28
 9.06598   4907.19
 9.07534   4902.96
 9.0847   4894.96
 9.09406   4914.04
 9.10342   4924.23
 9.11278   4924.55
 9.12214   4938.1
 9.1315   4964
 9.14086   4970.27
 9.15022   4980.18
 9.15958   4992.65
 9.16894   5018.89
 9.1783   5051.14
 9.18766   5067.45
 9.19702   5095.58
 9.20638   5134.44
 9.21574   5179.93
 9.2251   5215.07
 9.23446   5263.5
 9.24382   5317.96
 9.25318   5372.16
 9.26254   5428.41
 9.2719   5488.47
 9.28126   5554.67
 9.29062   5598.84
 9.29998   5634.1
 9.30934   5658.43
 9.3187   5687.4
 9.32806   5708.55
 9.33742   5716.89
 9.34678   5698.06
 9.35614   5661.67
 9.3655   5627.26
 9.37486   5562.48
 9.38422   5513.71
 9.39358   5444.37
 9.40294   5383.18
 9.4123   5327.21
 9.42166   5287.57
 9.43102   5250
 9.44038   5219.57
 9.44974   5194.35
 9.4591   5178.01
 9.46846   5183.67
 9.47782   5188.65
 9.48718   5198.88
 9.49654   5197.65
 9.5059   5217.84
 9.51526   5210.36
 9.52462   5212.12
 9.53398   5208.33
 9.54334   5217.24
 9.5527   5233.74
 9.56206   5250.77
 9.57142   5258.56
 9.58078   5284.84
 9.59014   5312.65
 9.5995   5322.13
 9.60886   5331.46
 9.61822   5342.43
 9.62758   5337.19
 9.63694   5335.76
 9.6463   5317.58
 9.65566   5315.04
 9.66502   5326.45
 9.67438   5321.7
 9.68374   5315.97
 9.6931   5300.23
 9.70246   5284.55
 9.71182   5238.34
 9.72118   5201.52
 9.73054   5163.89
 9.7399   5149.69
 9.74926   5112.36
 9.75862   5099.65
 9.76798   5092.47
 9.77734   5112.55
 9.7867   5126.85
 9.79606   5171.36
 9.80542   5254.3
 9.81478   5399.55
 9.82414   5713.03
 9.8335   6465.33
 9.84286   8107.49
 9.85222   10505.2
 9.86158   12405.3
 9.87094   11564.9
 9.8803   9154.95
 9.88966   7179.35
 9.89902   6164.52
 9.90838   5708.55
 9.91774   5533.39
 9.9271   5466.01
 9.93646   5435.69
 9.94582   5408.99
 9.95518   5406.51
 9.96454   5397.76
 9.9739   5400.48
 9.98326   5390.02
 9.99262   5386.95
 10.002   5387.11
 10.0113   5356.74
 10.0207   5341.24
 10.0301   5302.22
 10.0394   5269.84
 10.0488   5261.12
 10.0581   5240.07
 10.0675   5215.99
 10.0769   5196.73
 10.0862   5207.53
 10.0956   5189.99
 10.1049   5189.21
 10.1143   5180.28
 10.1237   5195.4
 10.133   5192.36
 10.1424   5214.5
 10.1517   5231.36
 10.1611   5251.29
 10.1705   5289.04
 10.1798   5305.36
 10.1892   5333.73
 10.1985   5378.25
 10.2079   5413.77
 10.2173   5446.06
 10.2266   5465.51
 10.236   5494.32
 10.2453   5505.06
 10.2547   5543.09
 10.2641   5638.18
 10.2734   5939.54
 10.2828   6661.56
 10.2921   7854.69
 10.3015   8594.33
 10.3109   8216.22
 10.3202   6927.45
 10.3296   6023.92
 10.3389   5482.51
 10.3483   5287.88
 10.3577   5212.87
 10.367   5167.43
 10.3764   5155.06
 10.3857   5167.5
 10.3951   5154.65
 10.4045   5159.74
 10.4138   5175.57
 10.4232   5181.19
 10.4325   5186.1
 10.4419   5206.5
 10.4513   5230.42
 10.4606   5250.6
 10.47   5274.97
 10.4793   5291.05
 10.4887   5293.51
 10.4981   5312.62
 10.5074   5310.41
 10.5168   5295.33
 10.5261   5276.77
 10.5355   5260.47
 10.5449   5237.59
 10.5542   5225.6
 10.5636   5191.1
 10.5729   5166.24
 10.5823   5137.46
 10.5917   5108.57
 10.601   5093.58
 10.6104   5081.36
 10.6197   5061.54
 10.6291   5057.53
 10.6385   5041.29
 10.6478   5025.63
 10.6572   5021.78
 10.6665   5028.43
 10.6759   5022.98
 10.6853   5023.47
 10.6946   5020.42
 10.704   5027.66
 10.7133   5051.71
 10.7227   5061.9
 10.7321   5068.66
 10.7414   5084.08
 10.7508   5110.36
 10.7601   5109.76
 10.7695   5116.61
 10.7789   5124.38
 10.7882   5112.29
 10.7976   5105.74
 10.8069   5092.6
 10.8163   5088.95
 10.8257   5081.15
 10.835   5073.99
 10.8444   5058.86
 10.8537   5049.01
 10.8631   5032.29
 10.8725   5018.68
 10.8818   4982.75
 10.8912   4972.43
 10.9005   4944.21
 10.9099   4927.97
 10.9193   4899.05
 10.9286   4887.18
 10.938   4875.12
 10.9473   4858.01
 10.9567   4825.75
 10.9661   4824.61
 10.9754   4817.97
 10.9848   4810.59
 10.9941   4792.33
 11.0035   4797.93
 11.0129   4795.08
 11.0222   4780.34
 11.0316   4789.87
 11.0409   4799.76
 11.0503   4805.3
 11.0597   4816.67
 11.069   4820.72
 11.0784   4827.96
 11.0877   4861.31
 11.0971   4879.32
 11.1065   4904.81
 11.1158   4941.21
 11.1252   4956.57
 11.1345   4988.19
 11.1439   4994.4
 11.1533   4985.57
 11.1626   4971.91
 11.172   4961.65
 11.1813   4947.95
 11.1907   4919.56
 11.2001   4883.93
 11.2094   4879.89
 11.2188   4862.14
 11.2281   4857.58
 11.2375   4816.89
 11.2469   4803.39
 11.2562   4782.91
 11.2656   4753.37
 11.2749   4715.27
 11.2843   4702.95
 11.2937   4694.38
 11.303   4671.9
 11.3124   4647.06
 11.3217   4631.13
 11.3311   4627.03
 11.3405   4609.72
 11.3498   4593.71
 11.3592   4570.38
 11.3685   4559.13
 11.3779   4560.28
 11.3873   4541.97
 11.3966   4527.58
 11.406   4530.03
 11.4153   4524
 11.4247   4512.14
 11.4341   4509.41
 11.4434   4506.28
 11.4528   4502.05
 11.4621   4493.2
 11.4715   4480.09
 11.4809   4476.96
 11.4902   4476.15
 11.4996   4471.73
 11.5089   4457.45
 11.5183   4460.36
 11.5277   4451.76
 11.537   4446.41
 11.5464   4427.33
 11.5557   4417.44
 11.5651   4426.44
 11.5745   4417.7
 11.5838   4400.53
 11.5932   4402.67
 11.6025   4401.82
 11.6119   4396.68
 11.6213   4396.38
 11.6306   4391.21
 11.64   4389.35
 11.6493   4383.25
 11.6587   4374.31
 11.6681   4361.86
 11.6774   4342.67
 11.6868   4348.52
 11.6961   4356.6
 11.7055   4342.56
 11.7149   4332.9
 11.7242   4350.12
 11.7336   4346.05
 11.7429   4341.63
 11.7523   4329.27
 11.7617   4340.43
 11.771   4336.08
 11.7804   4339.54
 11.7897   4337.53
 11.7991   4341.06
 11.8085   4342.15
 11.8178   4362.58
 11.8272   4368.25
 11.8365   4371.75
 11.8459   4383.87
 11.8553   4405.18
 11.8646   4444.93
 11.874   4519.53
 11.8833   4655.23
 11.8927   4864.85
 11.9021   5032.75
 11.9114   4974.81
 11.9208   4824.73
 11.9301   4665.71
 11.9395   4579.88
 11.9489   4539.62
 11.9582   4538.85
 11.9676   4551.28
 11.9769   4555.77
 11.9863   4545.77
 11.9957   4548.39
 12.005   4549.18
 12.0144   4535.24
 12.0237   4509.38
 12.0331   4511.3
 12.0425   4491.45
 12.0518   4474.79
 12.0612   4465.72
 12.0705   4443.61
 12.0799   4434.66
 12.0893   4423.95
 12.0986   4413.63
 12.108   4386.81
 12.1173   4361.45
 12.1267   4349.68
 12.1361   4319.27
 12.1454   4294.46
 12.1548   4259.39
 12.1641   4237.2
 12.1735   4214.74
 12.1829   4183.06
 12.1922   4170.26
 12.2016   4149.92
 12.2109   4150.23
 12.2203   4127.47
 12.2297   4116.95
 12.239   4102.9
 12.2484   4100.94
 12.2577   4099.94
 12.2671   4097.48
 12.2765   4093.06
 12.2858   4086.35
 12.2952   4084.29
 12.3045   4085.84
 12.3139   4093.24
 12.3233   4090.22
 12.3326   4092.7
 12.342   4097.38
 12.3513   4088.48
 12.3607   4100.03
 12.3701   4108.36
 12.3794   4114.17
 12.3888   4118
 12.3981   4128.14
 12.4075   4137.91
 12.4169   4134.82
 12.4262   4140.3
 12.4356   4138.97
 12.4449   4137.14
 12.4543   4141.14
 12.4637   4132.02
 12.473   4152.88
 12.4824   4149.69
 12.4917   4147.62
 12.5011   4135.66
 12.5105   4135.37
 12.5198   4127.23
 12.5292   4125.17
 12.5385   4113.54
 12.5479   4117.36
 12.5573   4111.85
 12.5666   4119.41
 12.576   4129.37
 12.5853   4129.98
 12.5947   4147.64
 12.6041   4155.07
 12.6134   4167.72
 12.6228   4176.91
 12.6321   4191.25
 12.6415   4194.95
 12.6509   4208.38
 12.6602   4214.79
 12.6696   4221.5
 12.6789   4228.39
 12.6883   4229.76
 12.6977   4230.36