File: docs/GuiliangJun25_tutorial_output/integrals/MA2b-00005_arcsmasked.chi
MA2b-00005.tif Azm= 0.00
2-Theta Angle (Degrees)
Intensity
       2500
 1.00702   7981.38
 1.01638   7947.22
 1.02574   7892.33
 1.0351   7841.39
 1.04446   7730.2
 1.05382   7718.21
 1.06318   7677.85
 1.07254   7661.52
 1.0819   7587.31
 1.09126   7570.41
 1.10062   7499
 1.10998   7464.61
 1.11934   7431.09
 1.1287   7406.32
 1.13806   7362.81
 1.14742   7328.23
 1.15678   7326.31
 1.16614   7307.11
 1.1755   7279.08
 1.18486   7281.41
 1.19422   7265.56
 1.20358   7235.76
 1.21294   7218.65
 1.2223   7243.83
 1.23166   7198.22
 1.24102   7189.37
 1.25038   7177.5
 1.25974   7176.34
 1.2691   7210.61
 1.27846   7208.48
 1.28782   7171.04
 1.29718   7173.79
 1.30654   7196.63
 1.3159   7180.68
 1.32526   7198.34
 1.33462   7189.35
 1.34398   7188.8
 1.35334   7240.66
 1.3627   7223.27
 1.37206   7281.84
 1.38142   7277.62
 1.39078   7332.44
 1.40014   7349.83
 1.4095   7386.41
 1.41886   7379.44
 1.42822   7431.11
 1.43758   7489.68
 1.44694   7542.15
 1.4563   7609.9
 1.46566   7635.44
 1.47502   7666.83
 1.48438   7709.07
 1.49374   7749.8
 1.5031   7816.86
 1.51246   7860.07
 1.52182   7837.93
 1.53118   7875.13
 1.54054   7889.32
 1.5499   7835.68
 1.55926   7841.56
 1.56862   7783.15
 1.57798   7796.9
 1.58734   7770.16
 1.5967   7764.2
 1.60606   7766.64
 1.61542   7767.77
 1.62478   7755.62
 1.63414   7776.72
 1.6435   7762.74
 1.65286   7799.76
 1.66222   7777.86
 1.67158   7776.13
 1.68094   7773.15
 1.6903   7794.56
 1.69966   7769.37
 1.70902   7790.65
 1.71838   7795.68
 1.72774   7793.1
 1.7371   7792
 1.74646   7801.73
 1.75582   7815.95
 1.76518   7852.01
 1.77454   7859.46
 1.7839   7886.13
 1.79326   7902.35
 1.80262   7941.04
 1.81198   7984.11
 1.82134   8000.19
 1.8307   8025.15
 1.84006   8071.11
 1.84942   8094.73
 1.85878   8141.63
 1.86814   8203.9
 1.8775   8241.46
 1.88686   8257.22
 1.89622   8330.89
 1.90558   8361.29
 1.91494   8386.37
 1.9243   8454.62
 1.93366   8503.76
 1.94302   8558.22
 1.95238   8599.98
 1.96174   8696.04
 1.9711   8870.85
 1.98046   8821.91
 1.98982   8816.67
 1.99918   8859.99
 2.00854   8917.76
 2.0179   8970
 2.02726   9060.42
 2.03662   9094.8
 2.04598   9151.82
 2.05534   9239.36
 2.0647   9325.07
 2.07406   9456.12
 2.08342   9648.42
 2.09278   9951.39
 2.10214   10530.1
 2.1115   11645.4
 2.12086   13951.2
 2.13022   18282.6
 2.13958   23841.6
 2.14894   28167.6
 2.1583   28720
 2.16766   26372.4
 2.17702   23051.2
 2.18638   20010.4
 2.19574   17382.9
 2.2051   15254.3
 2.21446   13845.8
 2.22382   12984.2
 2.23318   12473.5
 2.24254   12077.7
 2.2519   11618.6
 2.26126   11185.5
 2.27062   10850.5
 2.27998   10660.9
 2.28934   10575
 2.2987   10572.4
 2.30806   10570.9
 2.31742   10583.6
 2.32678   10627.2
 2.33614   10690
 2.3455   10747.1
 2.35486   10818.1
 2.36422   10844.7
 2.37358   10915.8
 2.38294   10970.3
 2.3923   11053.6
 2.40166   11127.9
 2.41102   11169.3
 2.42038   11251.5
 2.42974   11307.7
 2.4391   11381.9
 2.44846   11466.5
 2.45782   11551.4
 2.46718   11611.2
 2.47654   11672
 2.4859   11768.3
 2.49526   11849
 2.50462   11928.5
 2.51398   12008.7
 2.52334   12065.4
 2.5327   12132.4
 2.54206   12218
 2.55142   12263.6
 2.56078   12336.2
 2.57014   12410.1
 2.5795   12444.4
 2.58886   12517.4
 2.59822   12562.9
 2.60758   12611.4
 2.61694   12661.2
 2.6263   12699.8
 2.63566   12749.3
 2.64502   12795
 2.65438   12824.4
 2.66374   12870.4
 2.6731   12948.6
 2.68246   12904.8
 2.69182   12959.8
 2.70118   13012.3
 2.71054   13022.3
 2.7199   13022.2
 2.72926   13018
 2.73862   13008.3
 2.74798   13005.4
 2.75734   12954
 2.7667   12977.2
 2.77606   12951.9
 2.78542   12935.9
 2.79478   12909.6
 2.80414   12900.5
 2.8135   12867.6
 2.82286   12850.5
 2.83222   12819.8
 2.84158   12781.5
 2.85094   12738.8
 2.8603   12708.2
 2.86966   12664
 2.87902   12659.9
 2.88838   12601.5
 2.89774   12570.7
 2.9071   12555.1
 2.91646   12505
 2.92582   12482.8
 2.93518   12418.2
 2.94454   12394.2
 2.9539   12355.4
 2.96326   12291.1
 2.97262   12266.4
 2.98198   12231.6
 2.99134   12128.5
 3.0007   12099.7
 3.01006   12064.8
 3.01942   11990.2
 3.02878   11979
 3.03814   11926.7
 3.0475   11855.2
 3.05686   11794.8
 3.06622   11725.6
 3.07558   11665.5
 3.08494   11618.5
 3.0943   11573.9
 3.10366   11533
 3.11302   11496.9
 3.12238   11464.3
 3.13174   11433.6
 3.1411   11364.8
 3.15046   11334.2
 3.15982   11302.6
 3.16918   11278.5
 3.17854   11231.2
 3.1879   11212.3
 3.19726   11214.6
 3.20662   11166.1
 3.21598   11115.6
 3.22534   11129.4
 3.2347   11075.5
 3.24406   11038.8
 3.25342   11028.8
 3.26278   10995
 3.27214   10995.1
 3.2815   10944.3
 3.29086   10932
 3.30022   10928.7
 3.30958   10923.3
 3.31894   10914.3
 3.3283   10914.1
 3.33766   10917.4
 3.34702   10887.4
 3.35638   10881
 3.36574   10906.1
 3.3751   10908.1
 3.38446   10876.6
 3.39382   10898.3
 3.40318   10917.1
 3.41254   10973
 3.4219   10950
 3.43126   10944.7
 3.44062   10980.3
 3.44998   11007.8
 3.45934   10990.9
 3.4687   11015.3
 3.47806   11049.8
 3.48742   11024
 3.49678   10997.8
 3.50614   11036
 3.5155   11042.6
 3.52486   11019.1
 3.53422   10999.2
 3.54358   11061.1
 3.55294   11059
 3.5623   11012.5
 3.57166   11044
 3.58102   11103
 3.59038   11087.5
 3.59974   11072.1
 3.6091   11159.2
 3.61846   11229.4
 3.62782   11179.8
 3.63718   11199.2
 3.64654   11334.3
 3.6559   11401.7
 3.66526   11392.8
 3.67462   11431.5
 3.68398   11664.9
 3.69334   11703.1
 3.7027   11725
 3.71206   11812.8
 3.72142   12063.7
 3.73078   11887.1
 3.74014   11894.6
 3.7495   11971.2
 3.75886   11979.8
 3.76822   12174.4
 3.77758   12127.7
 3.78694   12216.4
 3.7963   12533.4
 3.80566   12457.8
 3.81502   12435.1
 3.82438   12978.5
 3.83374   13134.4
 3.8431   13465.3
 3.85246   14168.6
 3.86182   14744.6
 3.87118   15143.8
 3.88054   16160.4
 3.8899   17118.7
 3.89926   18742.2
 3.90862   21239.5
 3.91798   28748
 3.92734   44682
 3.9367   62442.9
 3.94606   81149.7
 3.95542   86564.6
 3.96478   99032.2
 3.97414   125812
 3.9835   105076
 3.99286   91700.2
 4.00222   62905.1
 4.01158   37362.1
 4.02094   24463.2
 4.0303   20042.5
 4.03966   17302.2
 4.04902   14940.9
 4.05838   13909.5
 4.06774   13498.6
 4.0771   12960.8
 4.08646   12951
 4.09582   12468.5
 4.10518   12195.4
 4.11454   12048.7
 4.1239   11597.6
 4.13326   11279.5
 4.14262   11313.8
 4.15198   10966.5
 4.16134   10695.3
 4.1707   10555.8
 4.18006   10476.2
 4.18942   10253.6
 4.19878   10005.8
 4.20814   9851.55
 4.2175   9830.82
 4.22686   9510.94
 4.23622   9354.44
 4.24558   9383.65
 4.25494   9306.66
 4.2643   9452.18
 4.27366   9699.35
 4.28302   9951.78
 4.29238   10247.2
 4.30174   10316.2
 4.3111   10137.3
 4.32046   9955
 4.32982   9602.03
 4.33918   9305.91
 4.34854   9204.76
 4.3579   9062.79
 4.36726   8845.17
 4.37662   8676.19
 4.38598   8479.45
 4.39534   8352.17
 4.4047   8224.95
 4.41406   8049.38
 4.42342   7979.32
 4.43278   7947.64
 4.44214   7811.86
 4.4515   7703.13
 4.46086   7686.86
 4.47022   7660.94
 4.47958   7576.09
 4.48894   7533.42
 4.4983   7484.09
 4.50766   7410.61
 4.51702   7276.03
 4.52638   7218.94
 4.53574   7195.4
 4.5451   7130.65
 4.55446   7073.68
 4.56382   7059.85
 4.57318   7026.08
 4.58254   7001.39
 4.5919   6950.03
 4.60126   6901.51
 4.61062   6884.9
 4.61998   6835.07
 4.62934   6818.6
 4.6387   6811.51
 4.64806   6765.67
 4.65742   6732.93
 4.66678   6739.32
 4.67614   6699.86
 4.6855   6693.4
 4.69486   6680.55
 4.70422   6689.01
 4.71358   6719.54
 4.72294   6795.97
 4.7323   6850.68
 4.74166   6931.11
 4.75102   7006.57
 4.76038   7109.11
 4.76974   7247.88
 4.7791   7487.07
 4.78846   7810.22
 4.79782   8175.58
 4.80718   8623.74
 4.81654   8991.65
 4.8259   9321.49
 4.83526   9494.29
 4.84462   9339.54
 4.85398   8923.56
 4.86334   8357.03
 4.8727   7828.65
 4.88206   7512.92
 4.89142   7388.24
 4.90078   7412.85
 4.91014   7557.8
 4.9195   7713.9
 4.92886   7889.57
 4.93822   8071.26
 4.94758   8339.25
 4.95694   8651.13
 4.9663   9065.54
 4.97566   9491.54
 4.98502   9801.12
 4.99438   9952.27
 5.00374   9782.21
 5.0131   9337.5
 5.02246   8733.61
 5.03182   8118.54
 5.04118   7593.25
 5.05054   7214.37
 5.0599   6966.62
 5.06926   6872.3
 5.07862   6916.21
 5.08798   7098.29
 5.09734   7370.64
 5.1067   8085.17
 5.11606   7924.84
 5.12542   8908.79
 5.13478   11386.1
 5.14414   13174.7
 5.1535   12317.3
 5.16286   9789.21
 5.17222   7836.02
 5.18158   6783
 5.19094   6824.27
 5.2003   6608.78
 5.20966   6389.29
 5.21902   6300.4
 5.22838   6188.82
 5.23774   6144.39
 5.2471   6083.88
 5.25646   6041.54
 5.26582   6019.4
 5.27518   6003.9
 5.28454   5957.36
 5.2939   5958.64
 5.30326   5964.79
 5.31262   5939.72
 5.32198   5931.04
 5.33134   5915.65
 5.3407   5926.69
 5.35006   5906.32
 5.35942   5889.05
 5.36878   5895.1
 5.37814   5917.89
 5.3875   5885.53
 5.39686   5905.13
 5.40622   5924.75
 5.41558   5934.77
 5.42494   5925.9
 5.4343   5972.41
 5.44366   6003.54
 5.45302   6048.32
 5.46238   6063.53
 5.47174   6138.76
 5.4811   6254.19
 5.49046   6389.53
 5.49982   6547.05
 5.50918   6841.91
 5.51854   7270.81
 5.5279   7861.5
 5.53726   8660.05
 5.54662   9563.49
 5.55598   10367.3
 5.56534   10736.1
 5.5747   10731.8
 5.58406   10402.6
 5.59342   9975.85
 5.60278   9836.66
 5.61214   8801.19
 5.6215   8165.29
 5.63086   7727.24
 5.64022   7324.07
 5.64958   7054.97
 5.65894   6845.61
 5.6683   6672.07
 5.67766   6475.1
 5.68702   6378.92
 5.69638   6297.55
 5.70574   6225.77
 5.7151   6154.24
 5.72446   6150.07
 5.73382   6162.65
 5.74318   6137.73
 5.75254   6140.75
 5.7619   6195.63
 5.77126   6198.21
 5.78062   6159.29
 5.78998   6130.34
 5.79934   6125.09
 5.8087   6153.37
 5.81806   6108.76
 5.82742   6150.21
 5.83678   6197.63
 5.84614   6248.9
 5.8555   6285.05
 5.86486   6404.97
 5.87422   6514.95
 5.88358   6686.86
 5.89294   6872
 5.9023   7156.77
 5.91166   7701.83
 5.92102   8367.22
 5.93038   9172.41
 5.93974   10064.1
 5.9491   10316.8
 5.95846   10002.1
 5.96782   9782.32
 5.97718   9573.65
 5.98654   9308.4
 5.9959   8998.33
 6.00526   8576.96
 6.01462   8134.68
 6.02398   7739.99
 6.03334   7318.51
 6.0427   7008.09
 6.05206   6765.56
 6.06142   6558.06
 6.07078   6374.4
 6.08014   6274.47
 6.0895   6197.79
 6.09886   6125.57
 6.10822   6051.45
 6.11758   6021.01
 6.12694   5996.03
 6.1363   5988.22
 6.14566   5962.7
 6.15502   5953.29
 6.16438   5952.87
 6.17374   5926.34
 6.1831   5920.02
 6.19246   5922.28
 6.20182   5928.06
 6.21118   5920.64
 6.22054   5924.32
 6.2299   5966.3
 6.23926   5936.07
 6.24862   5936.07
 6.25798   5948.03
 6.26734   5954.94
 6.2767   5961.52
 6.28606   5935.37
 6.29542   5969.16
 6.30478   5994.99
 6.31414   5985.28
 6.3235   5985.68
 6.33286   6007.33
 6.34222   6026.17
 6.35158   6004.59
 6.36094   6011.67
 6.3703   6021.01
 6.37966   6036.29
 6.38902   6062.7
 6.39838   6055.31
 6.40774   6096.85
 6.4171   6130.79
 6.42646   6143.95
 6.43582   6174.67
 6.44518   6226.97
 6.45454   6232.56
 6.4639   6253.48
 6.47326   6260.71
 6.48262   6297.58
 6.49198   6334.98
 6.50134   6307.59
 6.5107   6331.86
 6.52006   6368.57
 6.52942   6383.82
 6.53878   6406.44
 6.54814   6442.26
 6.5575   6477.53
 6.56686   6505.53
 6.57622   6519.94
 6.58558   6570.6
 6.59494   6646.65
 6.6043   6737.32
 6.61366   6739.96
 6.62302   6804.48
 6.63238   6907.91
 6.64174   6942.34
 6.6511   7001.58
 6.66046   7109.63
 6.66982   7109.58
 6.67918   7151.17
 6.68854   7154.63
 6.6979   7187.55
 6.70726   7267.1
 6.71662   7307.07
 6.72598   7326.66
 6.73534   7472.13
 6.7447   7516.95
 6.75406   7567.8
 6.76342   7727.68
 6.77278   7914.54
 6.78214   7993.07
 6.7915   8144.91
 6.80086   8312.24
 6.81022   8551.24
 6.81958   8928.88
 6.82894   9645.62
 6.8383   11139.5
 6.84766   19446.4
 6.85702   19716
 6.86638   33149.9
 6.87574   39580.9
 6.8851   36493.9
 6.89446   30513.7
 6.90382   18492.5
 6.91318   13128.4
 6.92254   11076.8
 6.9319   10501.7
 6.94126   10132.4
 6.95062   10147.9
 6.95998   9899.2
 6.96934   9517.18
 6.9787   9521.69
 6.98806   9349.1
 6.99742   9080.85
 7.00678   8991.8
 7.01614   8771.2
 7.0255   8584.76
 7.03486   8469.84
 7.04422   8242.61
 7.05358   8145.85
 7.06294   8149.65
 7.0723   7966.97
 7.08166   7765.23
 7.09102   7598.82
 7.10038   7526.31
 7.10974   7407.47
 7.1191   7347.64
 7.12846   7289.68
 7.13782   7256.11
 7.14718   7204
 7.15654   7149.45
 7.1659   7131.58
 7.17526   7134.97
 7.18462   7063.74
 7.19398   7042.57
 7.20334   6995.44
 7.2127   6987.39
 7.22206   6944.82
 7.23142   6920.89
 7.24078   6928.54
 7.25014   6951.35
 7.2595   6909.09
 7.26886   6907.38
 7.27822   6910.13
 7.28758   6911.53
 7.29694   6876.87
 7.3063   6883.73
 7.31566   6897.57
 7.32502   6915.25
 7.33438   6915.16
 7.34374   6940.57
 7.3531   6957.85
 7.36246   6976.9
 7.37182   7006.8
 7.38118   7009.86
 7.39054   7026.42
 7.3999   7054.52
 7.40926   7076.55
 7.41862   7131.1
 7.42798   7196.67
 7.43734   7258.55
 7.4467   7305.62
 7.45606   7382.72
 7.46542   7406.11
 7.47478   7428.28
 7.48414   7410.54
 7.4935   7384.96
 7.50286   7372.56
 7.51222   7353.32
 7.52158   7314.7
 7.53094   7274.35
 7.5403   7260.14
 7.54966   7231.36
 7.55902   7210.45
 7.56838   7185.2
 7.57774   7173.26
 7.5871   7121.83
 7.59646   7096.31
 7.60582   7019.28
 7.61518   6944.95
 7.62454   6822.71
 7.6339   6713.38
 7.64326   6635.82
 7.65262   6574.32
 7.66198   6509.42
 7.67134   6491.66
 7.6807   6463.04
 7.69006   6437.82
 7.69942   6409.29
 7.70878   6399.61
 7.71814   6380.3
 7.7275   6382.23
 7.73686   6360.01
 7.74622   6366.72
 7.75558   6356.57
 7.76494   6352.89
 7.7743   6392.69
 7.78366   6422.61
 7.79302   6445.64
 7.80238   6439.72
 7.81174   6449.12
 7.8211   6493.71
 7.83046   6517.92
 7.83982   6532.49
 7.84918   6550.83
 7.85854   6626
 7.8679   6586.26
 7.87726   6639.92
 7.88662   6731.37
 7.89598   6710.44
 7.90534   6886.85
 7.9147   7654.33
 7.92406   8238.64
 7.93342   10877.7
 7.94278   20798.4
 7.95214   14205.9
 7.9615   13854.2
 7.97086   10310
 7.98022   7777.39
 7.98958   7036.5
 7.99894   6700.29
 8.0083   6536.09
 8.01766   6515.82
 8.02702   6399.4
 8.03638   6355.42
 8.04574   6291.19
 8.0551   6204.14
 8.06446   6177.69
 8.07382   6204.16
 8.08318   6198.65
 8.09254   6226.02
 8.1019   6237.39
 8.11126   6253.84
 8.12062   6298.62
 8.12998   6295.7
 8.13934   6275.63
 8.1487   6315.91
 8.15806   6296.03
 8.16742   6328.87
 8.17678   6355.75
 8.18614   6395.33
 8.1955   6474.19
 8.20486   6578.44
 8.21422   6708.65
 8.22358   6871.85
 8.23294   7042.06
 8.2423   7200.07
 8.25166   7343.94
 8.26102   7481.57
 8.27038   7592.86
 8.27974   7677.51
 8.2891   7710.11
 8.29846   7660.87
 8.30782   7490.42
 8.31718   7211.02
 8.32654   6903.9
 8.3359   6591.41
 8.34526   6320.75
 8.35462   6171.89
 8.36398   6080.55
 8.37334   6250.88
 8.3827   6897.55
 8.39206   8123.35
 8.40142   9692.34
 8.41078   10158.7
 8.42014   8982.56
 8.4295   7334.64
 8.43886   6434.91
 8.44822   6051.5
 8.45758   5966.39
 8.46694   5956.25
 8.4763   5996.38
 8.48566   6071.8
 8.49502   6152.64
 8.50438   6243.25
 8.51374   6379.17
 8.5231   6501.54
 8.53246   6621.36
 8.54182   6761.28
 8.55118   6898.78
 8.56054   6988.2
 8.5699   7049.42
 8.57926   7073.84
 8.58862   7062.42
 8.59798   6978.72
 8.60734   6863.72
 8.6167   6706.02
 8.62606   6550.87
 8.63542   6379.49
 8.64478   6226.63
 8.65414   6097.44
 8.6635   5977.33
 8.67286   5873.45
 8.68222   5789.25
 8.69158   5721.56
 8.70094   5672.82
 8.7103   5618.45
 8.71966   5593.96
 8.72902   5555.44
 8.73838   5523.18
 8.74774   5484.37
 8.7571   5470.71
 8.76646   5452.38
 8.77582   5398.84
 8.78518   5398.88
 8.79454   5400.38
 8.8039   5376.04
 8.81326   5360.48
 8.82262   5358.11
 8.83198   5414.38
 8.84134   5549.76
 8.8507   6014.13
 8.86006   6758.56
 8.86942   7151.68
 8.87878   6027.05
 8.88814   5842.45
 8.8975   5487.04
 8.90686   5207.75
 8.91622   5146.02
 8.92558   5125.31
 8.93494   5100
 8.9443   5093.48
 8.95366   5086.02
 8.96302   5084.73
 8.97238   5071.58
 8.98174   5077.93
 8.9911   5063.8
 9.00046   5059.12
 9.00982   5054.77
 9.01918   5039.1
 9.02854   5022.98
 9.0379   5020.23
 9.04726   5010.46
 9.05662   5004.83
 9.06598   5003.79
 9.07534   4998.11
 9.0847   4999.46
 9.09406   5000.42
 9.10342   5004.24
 9.11278   5007.09
 9.12214   5025.76
 9.1315   5039.85
 9.14086   5042.97
 9.15022   5062.14
 9.15958   5081.58
 9.16894   5096.73
 9.1783   5119.11
 9.18766   5152.57
 9.19702   5175.9
 9.20638   5204.31
 9.21574   5246.36
 9.2251   5279.15
 9.23446   5314.54
 9.24382   5359.91
 9.25318   5389.54
 9.26254   5442.12
 9.2719   5493.42
 9.28126   5554.24
 9.29062   5594.54
 9.29998   5644.98
 9.30934   5676.06
 9.3187   5707.17
 9.32806   5734.76
 9.33742   5741.22
 9.34678   5735.77
 9.35614   5710.14
 9.3655   5685.85
 9.37486   5614.6
 9.38422   5552.6
 9.39358   5485.81
 9.40294   5417.31
 9.4123   5355.04
 9.42166   5303.51
 9.43102   5264.53
 9.44038   5222.22
 9.44974   5201.1
 9.4591   5179.99
 9.46846   5178.34
 9.47782   5187.94
 9.48718   5185.45
 9.49654   5202.02
 9.5059   5205.27
 9.51526   5217.4
 9.52462   5213.89
 9.53398   5220.13
 9.54334   5236.3
 9.5527   5260.79
 9.56206   5274.37
 9.57142   5294.31
 9.58078   5322.88
 9.59014   5343.31
 9.5995   5364.06
 9.60886   5398.38
 9.61822   5421.31
 9.62758   5432.47
 9.63694   5428
 9.6463   5437.33
 9.65566   5450.8
 9.66502   5474
 9.67438   5519.86
 9.68374   5572.4
 9.6931   5677.24
 9.70246   6201.82
 9.71182   6197.63
 9.72118   6203.91
 9.73054   5841.81
 9.7399   5609.73
 9.74926   5366
 9.75862   5261.15
 9.76798   5224.38
 9.77734   5210.13
 9.7867   5218.2
 9.79606   5257.95
 9.80542   5328.94
 9.81478   5464.95
 9.82414   5746.83
 9.8335   6501.42
 9.84286   7790.07
 9.85222   9688.51
 9.86158   11480.7
 9.87094   10863.3
 9.8803   8824.27
 9.88966   6971.91
 9.89902   6151.39
 9.90838   5694.86
 9.91774   5518.14
 9.9271   5456.3
 9.93646   5419.52
 9.94582   5405.69
 9.95518   5408.5
 9.96454   5399.46
 9.9739   5408.01
 9.98326   5403.34
 9.99262   5413.18
 10.002   5410.51
 10.0113   5377.19
 10.0207   5368.36
 10.0301   5335.65
 10.0394   5311.03
 10.0488   5294.67
 10.0581   5280.74
 10.0675   5266.15
 10.0769   5251.96
 10.0862   5246.36
 10.0956   5241.84
 10.1049   5228.12
 10.1143   5229.36
 10.1237   5245.94
 10.133   5235.83
 10.1424   5260
 10.1517   5280.16
 10.1611   5305.97
 10.1705   5344.94
 10.1798   5369.99
 10.1892   5395.25
 10.1985   5469.58
 10.2079   5524.89
 10.2173   5582.92
 10.2266   5607.77
 10.236   5641.92
 10.2453   5673.9
 10.2547   5684.58
 10.2641   5762.1
 10.2734   5903.24
 10.2828   5736.42
 10.2921   5984.57
 10.3015   6083.11
 10.3109   5975.31
 10.3202   5766.5
 10.3296   5928.09
 10.3389   5517.76
 10.3483   5387.9
 10.3577   5311.73
 10.367   5299.94
 10.3764   5279.68
 10.3857   5275.57
 10.3951   5280.5
 10.4045   5315.58
 10.4138   5307.7
 10.4232   5327.5
 10.4325   5349.65
 10.4419   5430.65
 10.4513   5437.18
 10.4606   5492.35
 10.47   5576.5
 10.4793   5748.22
 10.4887   5923.7
 10.4981   6309.83
 10.5074   6480.67
 10.5168   6488.08
 10.5261   6360.05
 10.5355   5638.06
 10.5449   5447.94
 10.5542   5406.72
 10.5636   5362.35
 10.5729   5286.55
 10.5823   5250.46
 10.5917   5250.64
 10.601   5211.44
 10.6104   5174.82
 10.6197   5167.23
 10.6291   5165.79
 10.6385   5142.78
 10.6478   5112.39
 10.6572   5117.54
 10.6665   5113.82
 10.6759   5094.37
 10.6853   5079.97
 10.6946   5090.49
 10.704   5110.83
 10.7133   5108.99
 10.7227   5117.01
 10.7321   5134.14
 10.7414   5146.31
 10.7508   5183.02
 10.7601   5174.41
 10.7695   5184
 10.7789   5194.51
 10.7882   5193.85
 10.7976   5179.91
 10.8069   5154.27
 10.8163   5151.08
 10.8257   5137.89
 10.835   5126.06
 10.8444   5116.05
 10.8537   5095.94
 10.8631   5085.97
 10.8725   5063.76
 10.8818   5035.25
 10.8912   5011.51
 10.9005   5001.38
 10.9099   4966.55
 10.9193   4941.2
 10.9286   4919.37
 10.938   4907.95
 10.9473   4891.19
 10.9567   4869.16
 10.9661   4856.47
 10.9754   4853.09
 10.9848   4842.55
 10.9941   4835.44
 11.0035   4820.56
 11.0129   4825.28
 11.0222   4828.4
 11.0316   4832.31
 11.0409   4837.01
 11.0503   4836.4
 11.0597   4848.9
 11.069   4848.53
 11.0784   4854.19
 11.0877   4879.33
 11.0971   4911.64
 11.1065   4921.12
 11.1158   4941.03
 11.1252   4963.11
 11.1345   4992.68
 11.1439   5008.28
 11.1533   5008.18
 11.1626   5002.58
 11.172   5002.37
 11.1813   4987.05
 11.1907   4959.58
 11.2001   4925.57
 11.2094   5192.01
 11.2188   5116.88
 11.2281   4919.37
 11.2375   4897.39
 11.2469   4852.4
 11.2562   4813.85
 11.2656   4767.88
 11.2749   4730.2
 11.2843   4713.66
 11.2937   4708.67
 11.303   4689.46
 11.3124   4662.6
 11.3217   4646.31
 11.3311   4645.48
 11.3405   4620.86
 11.3498   4603.46
 11.3592   4590.92
 11.3685   4587.81
 11.3779   4588.9
 11.3873   4566.9
 11.3966   4558.65
 11.406   4553
 11.4153   4549.05
 11.4247   4541.15
 11.4341   4526.41
 11.4434   4529.08
 11.4528   4530.65
 11.4621   4513.91
 11.4715   4504.81
 11.4809   4507.56
 11.4902   4507.47
 11.4996   4493.55
 11.5089   4495.62
 11.5183   4486.92
 11.5277   4482.41
 11.537   4479.92
 11.5464   4464.46
 11.5557   4455.26
 11.5651   4457.37
 11.5745   4443.94
 11.5838   4438.39
 11.5932   4438.04
 11.6025   4439.19
 11.6119   4438.97
 11.6213   4440.45
 11.6306   4432.72
 11.64   4425.76
 11.6493   4419.47
 11.6587   4404.35
 11.6681   4395.91
 11.6774   4390.55
 11.6868   4382.36
 11.6961   4381.26
 11.7055   4379.19
 11.7149   4375.96
 11.7242   4384.95
 11.7336   4376.47
 11.7429   4363.97
 11.7523   4374.39
 11.7617   4382.4
 11.771   4366.47
 11.7804   4378.33
 11.7897   4371.31
 11.7991   4383.14
 11.8085   4389.64
 11.8178   4391.34
 11.8272   4396.78
 11.8365   4413.2
 11.8459   4430.87
 11.8553   4449.98
 11.8646   4485.38
 11.874   4538.18
 11.8833   4597.26
 11.8927   4697.67
 11.9021   4781.11
 11.9114   4797.52
 11.9208   4738.07
 11.9301   4685.5
 11.9395   4661.85
 11.9489   4634.41
 11.9582   4615.34
 11.9676   4634.37
 11.9769   4629.28
 11.9863   4622.5
 11.9957   4612.04
 12.005   4608.55
 12.0144   4606.17
 12.0237   4573.17
 12.0331   4556.94
 12.0425   4528.06
 12.0518   4504.8
 12.0612   4483.75
 12.0705   4459.72
 12.0799   4451.92
 12.0893   4435.28
 12.0986   4410.75
 12.108   4407.98
 12.1173   4379.58
 12.1267   4357.68
 12.1361   4323.1
 12.1454   4292.1
 12.1548   4275.57
 12.1641   4259.17
 12.1735   4231.4
 12.1829   4205.5
 12.1922   4195.3
 12.2016   4187.07
 12.2109   4173.31
 12.2203   4162.79
 12.2297   4146.63
 12.239   4134.64
 12.2484   4130.19
 12.2577   4129.55
 12.2671   4122.72
 12.2765   4126.3
 12.2858   4118.66
 12.2952   4118.99
 12.3045   4117.33
 12.3139   4111.68
 12.3233   4109.15
 12.3326   4120.55
 12.342   4116.63
 12.3513   4130.25
 12.3607   4131.74
 12.3701   4148.89
 12.3794   4148.35
 12.3888   4158.8
 12.3981   4164.04
 12.4075   4166.38
 12.4169   4165.84
 12.4262   4171.12
 12.4356   4171.71
 12.4449   4182.52
 12.4543   4172.15
 12.4637   4166.19
 12.473   4163.34
 12.4824   4167.07
 12.4917   4162.76
 12.5011   4146.59
 12.5105   4141.45
 12.5198   4133.19
 12.5292   4133.95
 12.5385   4134.05
 12.5479   4151.89
 12.5573   4165.35
 12.5666   4152.36
 12.576   4164.85
 12.5853   4163.16
 12.5947   4142.15
 12.6041   4149.33
 12.6134   4154.71
 12.6228   4178.53
 12.6321   4188.94
 12.6415   4198.79
 12.6509   4208.46
 12.6602   4226.26
 12.6696   4233.14
 12.6789   4245.98
 12.6883   4258.63
 12.6977   4270.65