File: docs/GuiliangJun25_tutorial_output/integrals/MA2b-00006_base.chi
MA2b-00006.tif Azm= 0.00
2-Theta Angle (Degrees)
Intensity
       2500
 1.00702   7921.06
 1.01638   7862.06
 1.02574   7781.14
 1.0351   7718.94
 1.04446   7691.41
 1.05382   7693.82
 1.06318   7603.64
 1.07254   7569.12
 1.0819   7538.94
 1.09126   7507.63
 1.10062   7458.73
 1.10998   7398.81
 1.11934   7398.35
 1.1287   7338.26
 1.13806   7288.42
 1.14742   7279.07
 1.15678   7266.38
 1.16614   7196.42
 1.1755   7217.05
 1.18486   7212.82
 1.19422   7168.57
 1.20358   7153.56
 1.21294   7139.61
 1.2223   7143.68
 1.23166   7094.32
 1.24102   7125.36
 1.25038   7105.16
 1.25974   7118.85
 1.2691   7089.15
 1.27846   7102.55
 1.28782   7121.98
 1.29718   7120.88
 1.30654   7126.39
 1.3159   7122.37
 1.32526   7139.18
 1.33462   7171.43
 1.34398   7139.53
 1.35334   7168.81
 1.3627   7195.3
 1.37206   7209.6
 1.38142   7214.98
 1.39078   7226.93
 1.40014   7259.36
 1.4095   7316.45
 1.41886   7352.05
 1.42822   7370.6
 1.43758   7401.56
 1.44694   7455.17
 1.4563   7508.93
 1.46566   7562.56
 1.47502   7625.28
 1.48438   7664.1
 1.49374   7683.29
 1.5031   7731.8
 1.51246   7763.95
 1.52182   7790.86
 1.53118   7790.3
 1.54054   7778.44
 1.5499   7795.02
 1.55926   7750.38
 1.56862   7764.79
 1.57798   7731.68
 1.58734   7699.11
 1.5967   7670.51
 1.60606   7710.27
 1.61542   7689.45
 1.62478   7679.91
 1.63414   7687.18
 1.6435   7708.08
 1.65286   7690.58
 1.66222   7713.96
 1.67158   7715.06
 1.68094   7712.55
 1.6903   7710.72
 1.69966   7704.23
 1.70902   7722.33
 1.71838   7737.34
 1.72774   7724.77
 1.7371   7750.57
 1.74646   7753.55
 1.75582   7777.06
 1.76518   7771.85
 1.77454   7796.07
 1.7839   7840.43
 1.79326   7844.42
 1.80262   7868.86
 1.81198   7903.42
 1.82134   7923.74
 1.8307   7971.49
 1.84006   8012.09
 1.84942   8068.36
 1.85878   8090.83
 1.86814   8128.73
 1.8775   8169.4
 1.88686   8212.2
 1.89622   8255.7
 1.90558   8304.31
 1.91494   8317.73
 1.9243   8395.87
 1.93366   8484.32
 1.94302   8490.81
 1.95238   8555.03
 1.96174   8634.33
 1.9711   8802.76
 1.98046   8766.13
 1.98982   8778.55
 1.99918   8784.06
 2.00854   8844.38
 2.0179   8906.29
 2.02726   8952.15
 2.03662   9038.2
 2.04598   9110.47
 2.05534   9170.57
 2.0647   9273.35
 2.07406   9411.92
 2.08342   9657.84
 2.09278   10000.9
 2.10214   10705.4
 2.1115   12126.6
 2.12086   15071.7
 2.13022   20348.7
 2.13958   26622.2
 2.14894   30681.3
 2.1583   30017.6
 2.16766   26127.7
 2.17702   21821.4
 2.18638   18361.3
 2.19574   15860.1
 2.2051   14062.6
 2.21446   12901.2
 2.22382   12226.9
 2.23318   11851.6
 2.24254   11548.2
 2.2519   11243
 2.26126   10899.3
 2.27062   10634.8
 2.27998   10510.2
 2.28934   10472.4
 2.2987   10460.7
 2.30806   10472.7
 2.31742   10524.5
 2.32678   10578.9
 2.33614   10609.1
 2.3455   10632.4
 2.35486   10685.6
 2.36422   10748.7
 2.37358   10834.1
 2.38294   10882.1
 2.3923   10951.6
 2.40166   11016.6
 2.41102   11120
 2.42038   11157.1
 2.42974   11245.1
 2.4391   11307.2
 2.44846   11398.9
 2.45782   11440.2
 2.46718   11516
 2.47654   11599.8
 2.4859   11685.1
 2.49526   11759.3
 2.50462   11822.6
 2.51398   11888.7
 2.52334   11957.2
 2.5327   12039.6
 2.54206   12111.2
 2.55142   12162.3
 2.56078   12231.9
 2.57014   12308.4
 2.5795   12333.7
 2.58886   12426.8
 2.59822   12473.2
 2.60758   12515.3
 2.61694   12551.2
 2.6263   12598
 2.63566   12658
 2.64502   12683.3
 2.65438   12682.2
 2.66374   12744.3
 2.6731   12819.2
 2.68246   12797.8
 2.69182   12853.6
 2.70118   12930.7
 2.71054   12938.4
 2.7199   12915.6
 2.72926   12912
 2.73862   12904.5
 2.74798   12876.1
 2.75734   12862.6
 2.7667   12870.5
 2.77606   12858.6
 2.78542   12801.6
 2.79478   12805
 2.80414   12788.4
 2.8135   12758.3
 2.82286   12739.4
 2.83222   12699.6
 2.84158   12677.3
 2.85094   12669.7
 2.8603   12623.4
 2.86966   12573.8
 2.87902   12547.9
 2.88838   12518.7
 2.89774   12493.4
 2.9071   12446.1
 2.91646   12380.2
 2.92582   12344.3
 2.93518   12322.2
 2.94454   12296.7
 2.9539   12271.2
 2.96326   12173.4
 2.97262   12156
 2.98198   12121.5
 2.99134   12016.9
 3.0007   12003.1
 3.01006   11943.1
 3.01942   11897.6
 3.02878   11852.1
 3.03814   11799.8
 3.0475   11753
 3.05686   11679.6
 3.06622   11611.9
 3.07558   11547.5
 3.08494   11508.7
 3.0943   11472.7
 3.10366   11413.6
 3.11302   11383.2
 3.12238   11359.8
 3.13174   11323.4
 3.1411   11276.4
 3.15046   11228.1
 3.15982   11209.3
 3.16918   11162.6
 3.17854   11120.6
 3.1879   11129
 3.19726   11097.2
 3.20662   11075.9
 3.21598   11013.3
 3.22534   11021.1
 3.2347   10969.6
 3.24406   10929.6
 3.25342   10901
 3.26278   10900.1
 3.27214   10866.1
 3.2815   10839.7
 3.29086   10834
 3.30022   10830.3
 3.30958   10822.8
 3.31894   10781
 3.3283   10798.2
 3.33766   10785.9
 3.34702   10785.8
 3.35638   10776.5
 3.36574   10804.8
 3.3751   10790.9
 3.38446   10791.8
 3.39382   10784.2
 3.40318   10812.3
 3.41254   10826.5
 3.4219   10822.5
 3.43126   10809.1
 3.44062   10828.1
 3.44998   10866.1
 3.45934   10845.9
 3.4687   10878.7
 3.47806   10904.6
 3.48742   10886.4
 3.49678   10870.9
 3.50614   10923.8
 3.5155   10909.8
 3.52486   10882.7
 3.53422   10880.5
 3.54358   10937.5
 3.55294   10923
 3.5623   10921.9
 3.57166   10898.4
 3.58102   10966.4
 3.59038   10950.1
 3.59974   10936.5
 3.6091   11011
 3.61846   11077.7
 3.62782   11033.1
 3.63718   11034.5
 3.64654   11150.5
 3.6559   11210.8
 3.66526   11195.3
 3.67462   11215.5
 3.68398   11451.6
 3.69334   11434.6
 3.7027   11450.5
 3.71206   11524.4
 3.72142   11717
 3.73078   11601.7
 3.74014   11628.6
 3.7495   11706.7
 3.75886   11735.5
 3.76822   11902.9
 3.77758   11857.8
 3.78694   12008.7
 3.7963   12305.2
 3.80566   12205.5
 3.81502   12218.5
 3.82438   12775.1
 3.83374   12857.6
 3.8431   13124.5
 3.85246   13743.2
 3.86182   14242.5
 3.87118   14627.3
 3.88054   15503.3
 3.8899   16297.7
 3.89926   17695.5
 3.90862   19718
 3.91798   25194.7
 3.92734   39192.1
 3.9367   59200.7
 3.94606   79461.1
 3.95542   83843.2
 3.96478   97561.9
 3.97414   122846
 3.9835   104628
 3.99286   89645.1
 4.00222   60511.8
 4.01158   37433.5
 4.02094   24277.1
 4.0303   19463.3
 4.03966   16746.7
 4.04902   14533.3
 4.05838   13618.7
 4.06774   13161.5
 4.0771   12677.4
 4.08646   12615.2
 4.09582   12131.4
 4.10518   11867
 4.11454   11761.3
 4.1239   11305.4
 4.13326   10968.5
 4.14262   11033.8
 4.15198   10718.5
 4.16134   10467
 4.1707   10317.3
 4.18006   10250.7
 4.18942   10043.3
 4.19878   9809.91
 4.20814   9668.56
 4.2175   9643.22
 4.22686   9380.18
 4.23622   9221
 4.24558   9300.28
 4.25494   9292.01
 4.2643   9466.12
 4.27366   9822.19
 4.28302   10163.2
 4.29238   10486.5
 4.30174   10479.9
 4.3111   10182.4
 4.32046   9869.68
 4.32982   9455.54
 4.33918   9091.47
 4.34854   8951.04
 4.3579   8784.42
 4.36726   8548.33
 4.37662   8389.43
 4.38598   8237.09
 4.39534   8117.37
 4.4047   8026.08
 4.41406   7861.83
 4.42342   7792.8
 4.43278   7786.34
 4.44214   7662.02
 4.4515   7562.64
 4.46086   7560.57
 4.47022   7533.14
 4.47958   7472.9
 4.48894   7413.3
 4.4983   7376.79
 4.50766   7289.11
 4.51702   7179.83
 4.52638   7148.7
 4.53574   7108.29
 4.5451   7050.4
 4.55446   7010.88
 4.56382   6971.86
 4.57318   6958.34
 4.58254   6917.9
 4.5919   6862.84
 4.60126   6832.52
 4.61062   6828.1
 4.61998   6762.58
 4.62934   6752.63
 4.6387   6729.45
 4.64806   6700.1
 4.65742   6650.27
 4.66678   6660.94
 4.67614   6633.18
 4.6855   6614.8
 4.69486   6610.92
 4.70422   6612.03
 4.71358   6637.14
 4.72294   6690.66
 4.7323   6720.91
 4.74166   6772.88
 4.75102   6840.74
 4.76038   6910.02
 4.76974   7021.62
 4.7791   7203.82
 4.78846   7459.6
 4.79782   7806.67
 4.80718   8233.18
 4.81654   8704.38
 4.8259   9175.55
 4.83526   9511.73
 4.84462   9553.15
 4.85398   9200.93
 4.86334   8589.15
 4.8727   7963.36
 4.88206   7554.32
 4.89142   7345.65
 4.90078   7279.06
 4.91014   7375.45
 4.9195   7487.26
 4.92886   7647.46
 4.93822   7866.2
 4.94758   8166.3
 4.95694   8568.61
 4.9663   9086
 4.97566   9646.75
 4.98502   10154
 4.99438   10406.1
 5.00374   10286.5
 5.0131   9851.43
 5.02246   9143.42
 5.03182   8415.85
 5.04118   7804.95
 5.05054   7340.1
 5.0599   7023.69
 5.06926   6912.04
 5.07862   6951.04
 5.08798   7163.51
 5.09734   7810.96
 5.1067   9493.49
 5.11606   12790.2
 5.12542   20984.6
 5.13478   39355.8
 5.14414   51159
 5.1535   41426.2
 5.16286   25993.6
 5.17222   14749.1
 5.18158   9393.74
 5.19094   7318.01
 5.2003   6733.69
 5.20966   6466.6
 5.21902   6276.98
 5.22838   6158.25
 5.23774   6108.35
 5.2471   6037.13
 5.25646   5992.33
 5.26582   5961.27
 5.27518   5940.09
 5.28454   5913.59
 5.2939   5916.16
 5.30326   5927.36
 5.31262   5888.76
 5.32198   5878.67
 5.33134   5863.78
 5.3407   5871.7
 5.35006   5841.83
 5.35942   5835.82
 5.36878   5844.17
 5.37814   5865.18
 5.3875   5816.18
 5.39686   5834.6
 5.40622   5857.78
 5.41558   5873.61
 5.42494   5852.05
 5.4343   5875.8
 5.44366   5914.01
 5.45302   5946.37
 5.46238   5950.68
 5.47174   6011.34
 5.4811   6104.05
 5.49046   6184.95
 5.49982   6284.94
 5.50918   6508.25
 5.51854   6828.68
 5.5279   7256.26
 5.53726   7832.55
 5.54662   8527.44
 5.55598   9140.64
 5.56534   9469.09
 5.5747   9524.46
 5.58406   9360.1
 5.59342   9065.13
 5.60278   9065.32
 5.61214   8157.39
 5.6215   7653.91
 5.63086   7286.94
 5.64022   6969.09
 5.64958   6765.53
 5.65894   6596.48
 5.6683   6448.94
 5.67766   6314.95
 5.68702   6240.77
 5.69638   6178.81
 5.70574   6121.91
 5.7151   6062.28
 5.72446   6070.24
 5.73382   6090.14
 5.74318   6079.77
 5.75254   6102.38
 5.7619   6124.95
 5.77126   6153.5
 5.78062   6115.14
 5.78998   6080.02
 5.79934   6110.48
 5.8087   6129.6
 5.81806   6087.23
 5.82742   6139.58
 5.83678   6191.21
 5.84614   6257.48
 5.8555   6294.66
 5.86486   6396.48
 5.87422   6568.02
 5.88358   6739.17
 5.89294   6963.29
 5.9023   7410.32
 5.91166   8243.34
 5.92102   9843.97
 5.93038   12753.1
 5.93974   15112.2
 5.9491   15160.6
 5.95846   13282.8
 5.96782   11432.3
 5.97718   10487.2
 5.98654   10052.8
 5.9959   9568.04
 6.00526   9066.9
 6.01462   8545.88
 6.02398   8030.29
 6.03334   7530.11
 6.0427   7159.38
 6.05206   6851.4
 6.06142   6597.96
 6.07078   6401.12
 6.08014   6295.6
 6.0895   6215.68
 6.09886   6119.92
 6.10822   6039.39
 6.11758   6005.08
 6.12694   5986.03
 6.1363   5956.83
 6.14566   5920.43
 6.15502   5910.07
 6.16438   5910.75
 6.17374   5891.7
 6.1831   5887.02
 6.19246   5894.83
 6.20182   5905.7
 6.21118   5884.42
 6.22054   5883.55
 6.2299   5905.56
 6.23926   5889
 6.24862   5884.21
 6.25798   5907.53
 6.26734   5902.11
 6.2767   5922.03
 6.28606   5895.66
 6.29542   5916.55
 6.30478   5939.05
 6.31414   5936.41
 6.3235   5928.51
 6.33286   5948.41
 6.34222   5966.3
 6.35158   5972.55
 6.36094   5955
 6.3703   5976.47
 6.37966   5982.78
 6.38902   6013.99
 6.39838   6011.39
 6.40774   6058.05
 6.4171   6090.19
 6.42646   6097.69
 6.43582   6129.99
 6.44518   6174.17
 6.45454   6181.23
 6.4639   6202.16
 6.47326   6215.09
 6.48262   6229.31
 6.49198   6255.88
 6.50134   6225.85
 6.5107   6281.28
 6.52006   6308.26
 6.52942   6307.6
 6.53878   6337.6
 6.54814   6374.71
 6.5575   6404.56
 6.56686   6424.99
 6.57622   6448.63
 6.58558   6495.37
 6.59494   6573.13
 6.6043   6656.41
 6.61366   6664.46
 6.62302   6700.47
 6.63238   6809.65
 6.64174   6833.98
 6.6511   6908.86
 6.66046   7009.74
 6.66982   6997.48
 6.67918   7055.42
 6.68854   7065.56
 6.6979   7088.6
 6.70726   7160.15
 6.71662   7200.55
 6.72598   7220.18
 6.73534   7343.17
 6.7447   7391.82
 6.75406   7440.43
 6.76342   7569.35
 6.77278   7726.35
 6.78214   7797.56
 6.7915   7950.33
 6.80086   8081.04
 6.81022   8241.95
 6.81958   8531.55
 6.82894   8911.09
 6.8383   9555.13
 6.84766   11774.7
 6.85702   14740.9
 6.86638   28516.8
 6.87574   39286.7
 6.8851   33090.8
 6.89446   22125
 6.90382   13483.4
 6.91318   10969.1
 6.92254   10358.8
 6.9319   10187.9
 6.94126   9945.38
 6.95062   9960.36
 6.95998   9769.28
 6.96934   9372.87
 6.9787   9336.94
 6.98806   9144.95
 6.99742   8876.24
 7.00678   8759.9
 7.01614   8530.56
 7.0255   8346.8
 7.03486   8239.49
 7.04422   8054.63
 7.05358   7980.07
 7.06294   7981.13
 7.0723   7832.92
 7.08166   7627.08
 7.09102   7472.92
 7.10038   7416.29
 7.10974   7294.83
 7.1191   7262.12
 7.12846   7186.28
 7.13782   7174.63
 7.14718   7130.04
 7.15654   7067.76
 7.1659   7056.36
 7.17526   7044.21
 7.18462   7002.61
 7.19398   6974.38
 7.20334   6917.45
 7.2127   6921.46
 7.22206   6883.79
 7.23142   6857.36
 7.24078   6865.54
 7.25014   6872.03
 7.2595   6855.07
 7.26886   6837.65
 7.27822   6849.35
 7.28758   6848.37
 7.29694   6823.97
 7.3063   6808.34
 7.31566   6819.9
 7.32502   6844.8
 7.33438   6864.64
 7.34374   6890.78
 7.3531   6905.29
 7.36246   6916.62
 7.37182   6937.85
 7.38118   6939.4
 7.39054   6964.68
 7.3999   7003.7
 7.40926   7050.33
 7.41862   7110.51
 7.42798   7196.52
 7.43734   7278.62
 7.4467   7334.74
 7.45606   7417.48
 7.46542   7442.96
 7.47478   7455.45
 7.48414   7418.88
 7.4935   7362.26
 7.50286   7316.57
 7.51222   7250.22
 7.52158   7180.99
 7.53094   7110.95
 7.5403   7080.34
 7.54966   7040.14
 7.55902   6988.45
 7.56838   6961.79
 7.57774   6931.19
 7.5871   6891.63
 7.59646   6874.75
 7.60582   6806.76
 7.61518   6761.69
 7.62454   6680.77
 7.6339   6603.22
 7.64326   6530.42
 7.65262   6483.32
 7.66198   6424.84
 7.67134   6414.69
 7.6807   6396.3
 7.69006   6370.91
 7.69942   6362.95
 7.70878   6355.19
 7.71814   6313.5
 7.7275   6332.46
 7.73686   6314.53
 7.74622   6315.24
 7.75558   6307.9
 7.76494   6303.59
 7.7743   6350.91
 7.78366   6371.07
 7.79302   6390.72
 7.80238   6398.1
 7.81174   6398.94
 7.8211   6444.04
 7.83046   6481.44
 7.83982   6484.01
 7.84918   6501.13
 7.85854   6583.52
 7.8679   6550.82
 7.87726   6592.95
 7.88662   6686.09
 7.89598   6693.51
 7.90534   6886.13
 7.9147   7714.7
 7.92406   8268.42
 7.93342   11093.3
 7.94278   20572.1
 7.95214   17735
 7.9615   15905.9
 7.97086   11794.9
 7.98022   8049.33
 7.98958   7032.53
 7.99894   6673.06
 8.0083   6500.22
 8.01766   6490.91
 8.02702   6363.21
 8.03638   6316.55
 8.04574   6255.36
 8.0551   6170.16
 8.06446   6135.07
 8.07382   6145.85
 8.08318   6118.76
 8.09254   6124.24
 8.1019   6148.05
 8.11126   6128.74
 8.12062   6171.65
 8.12998   6194.05
 8.13934   6144.14
 8.1487   6182.6
 8.15806   6163.14
 8.16742   6177.81
 8.17678   6197.55
 8.18614   6226.08
 8.1955   6261.32
 8.20486   6357.34
 8.21422   6452.79
 8.22358   6598.29
 8.23294   6767.5
 8.2423   6947.22
 8.25166   7130.24
 8.26102   7320.89
 8.27038   7531.88
 8.27974   7713.14
 8.2891   7826.23
 8.29846   7866.96
 8.30782   7740.3
 8.31718   7486.3
 8.32654   7155.95
 8.3359   6804.29
 8.34526   6474.65
 8.35462   6270.43
 8.36398   6136.3
 8.37334   6272.79
 8.3827   6922.65
 8.39206   8451.55
 8.40142   10212.7
 8.41078   10706.4
 8.42014   9325.84
 8.4295   7411.21
 8.43886   6342.5
 8.44822   5958.3
 8.45758   5841.54
 8.46694   5831.12
 8.4763   5862.49
 8.48566   5922.47
 8.49502   6013.24
 8.50438   6122.65
 8.51374   6252.93
 8.5231   6412.6
 8.53246   6577.64
 8.54182   6753.58
 8.55118   6941.84
 8.56054   7097.63
 8.5699   7219.7
 8.57926   7303.87
 8.58862   7306.45
 8.59798   7227.4
 8.60734   7099.52
 8.6167   6913.48
 8.62606   6702.04
 8.63542   6504.78
 8.64478   6331.93
 8.65414   6151.96
 8.6635   6005.76
 8.67286   5874.56
 8.68222   5768.25
 8.69158   5690.94
 8.70094   5619.58
 8.7103   5556.49
 8.71966   5516.62
 8.72902   5471.65
 8.73838   5439.5
 8.74774   5384.03
 8.7571   5372.07
 8.76646   5352.49
 8.77582   5325.1
 8.78518   5299.69
 8.79454   5294.1
 8.8039   5285.58
 8.81326   5280.72
 8.82262   5272.39
 8.83198   5316.84
 8.84134   5441.46
 8.8507   5869.75
 8.86006   6587.44
 8.86942   6944.27
 8.87878   5971.53
 8.88814   5866.26
 8.8975   5475.58
 8.90686   5160.52
 8.91622   5094.53
 8.92558   5082.59
 8.93494   5055.44
 8.9443   5044.38
 8.95366   5051.08
 8.96302   5026.9
 8.97238   5035.94
 8.98174   5029.94
 8.9911   5029.59
 9.00046   5018.34
 9.00982   5006.13
 9.01918   5003.29
 9.02854   4986.32
 9.0379   4988.81
 9.04726   4977.47
 9.05662   4963.48
 9.06598   4962.91
 9.07534   4960.48
 9.0847   4958.71
 9.09406   4958.55
 9.10342   4969.38
 9.11278   4982.68
 9.12214   4994.01
 9.1315   5010.52
 9.14086   5022.09
 9.15022   5030.95
 9.15958   5057.5
 9.16894   5082.35
 9.1783   5098.45
 9.18766   5121.86
 9.19702   5151.07
 9.20638   5185.68
 9.21574   5225.55
 9.2251   5239.07
 9.23446   5257.28
 9.24382   5293.17
 9.25318   5327.39
 9.26254   5361.23
 9.2719   5405.83
 9.28126   5451.32
 9.29062   5509.49
 9.29998   5535.51
 9.30934   5591.04
 9.3187   5632.83
 9.32806   5674.98
 9.33742   5690.9
 9.34678   5683.09
 9.35614   5674
 9.3655   5646.64
 9.37486   5584.8
 9.38422   5499.34
 9.39358   5433.24
 9.40294   5356.76
 9.4123   5295.74
 9.42166   5237.21
 9.43102   5196.35
 9.44038   5158.58
 9.44974   5139.57
 9.4591   5110.11
 9.46846   5100.48
 9.47782   5113.72
 9.48718   5115.28
 9.49654   5114.89
 9.5059   5124.14
 9.51526   5138.45
 9.52462   5137.97
 9.53398   5152.44
 9.54334   5155.15
 9.5527   5193.71
 9.56206   5211.42
 9.57142   5225.89
 9.58078   5251.63
 9.59014   5296.54
 9.5995   5334.38
 9.60886   5360.62
 9.61822   5381.95
 9.62758   5401.24
 9.63694   5401.08
 9.6463   5418.66
 9.65566   5442.65
 9.66502   5477.45
 9.67438   5518.47
 9.68374   5608.02
 9.6931   5712.33
 9.70246   6237.25
 9.71182   6260.38
 9.72118   6371.19
 9.73054   5879.13
 9.7399   5639.42
 9.74926   5386
 9.75862   5259.97
 9.76798   5205.35
 9.77734   5203.04
 9.7867   5202.51
 9.79606   5210.57
 9.80542   5272.52
 9.81478   5395.81
 9.82414   5713.23
 9.8335   6529.68
 9.84286   8310.26
 9.85222   11040.8
 9.86158   12939.5
 9.87094   12086.2
 9.8803   9462.05
 9.88966   7224.84
 9.89902   6082.1
 9.90838   5612.21
 9.91774   5426.81
 9.9271   5351.6
 9.93646   5333.51
 9.94582   5336.28
 9.95518   5319.05
 9.96454   5342.95
 9.9739   5335.1
 9.98326   5342.31
 9.99262   5346.9
 10.002   5349.05
 10.0113   5329.76
 10.0207   5319.27
 10.0301   5291.4
 10.0394   5266.84
 10.0488   5256.16
 10.0581   5225.39
 10.0675   5224.94
 10.0769   5207.17
 10.0862   5194.91
 10.0956   5191.81
 10.1049   5196.48
 10.1143   5187.74
 10.1237   5194.72
 10.133   5209.78
 10.1424   5218.85
 10.1517   5244.39
 10.1611   5260.07
 10.1705   5309.83
 10.1798   5354.27
 10.1892   5387.02
 10.1985   5467.27
 10.2079   5533.83
 10.2173   5596.79
 10.2266   5626.88
 10.236   5692.11
 10.2453   5711.69
 10.2547   5748.93
 10.2641   5822.94
 10.2734   6114.06
 10.2828   6803.87
 10.2921   7997.72
 10.3015   8712.13
 10.3109   8294.88
 10.3202   6982.47
 10.3296   6083.19
 10.3389   5560.7
 10.3483   5358.23
 10.3577   5296.8
 10.367   5291.45
 10.3764   5254.41
 10.3857   5266.05
 10.3951   5267.11
 10.4045   5313.92
 10.4138   5302.3
 10.4232   5325.07
 10.4325   5352.65
 10.4419   5438.25
 10.4513   5455.64
 10.4606   5498.54
 10.47   5638.33
 10.4793   5880.2
 10.4887   5923.58
 10.4981   6331.6
 10.5074   6463.49
 10.5168   6493.35
 10.5261   5947.59
 10.5355   5586.35
 10.5449   5453.53
 10.5542   5386.55
 10.5636   5327.58
 10.5729   5262.12
 10.5823   5224.99
 10.5917   5218.46
 10.601   5188.14
 10.6104   5147.45
 10.6197   5128.71
 10.6291   5127.37
 10.6385   5098.55
 10.6478   5078
 10.6572   5077.73
 10.6665   5067.58
 10.6759   5060.79
 10.6853   5053.24
 10.6946   5061.33
 10.704   5068.49
 10.7133   5071.76
 10.7227   5083.51
 10.7321   5120.08
 10.7414   5129.76
 10.7508   5156.44
 10.7601   5148.62
 10.7695   5164.13
 10.7789   5165.99
 10.7882   5156.75
 10.7976   5149.43
 10.8069   5127.25
 10.8163   5123.07
 10.8257   5119.63
 10.835   5097.42
 10.8444   5085.99
 10.8537   5065.08
 10.8631   5050.88
 10.8725   5027.06
 10.8818   5001.56
 10.8912   4965.51
 10.9005   4953.55
 10.9099   4926.09
 10.9193   4899.32
 10.9286   4879.82
 10.938   4870.08
 10.9473   4848.61
 10.9567   4831.7
 10.9661   4815.02
 10.9754   4802.07
 10.9848   4793.91
 10.9941   4790.15
 11.0035   4773.09
 11.0129   4796.87
 11.0222   4787.18
 11.0316   4776.7
 11.0409   4789.22
 11.0503   4792.92
 11.0597   4808.02
 11.069   4795.11
 11.0784   4803.79
 11.0877   4821.46
 11.0971   4849.62
 11.1065   4867.93
 11.1158   4885.59
 11.1252   4909.67
 11.1345   4942.31
 11.1439   4959.19
 11.1533   4962.1
 11.1626   4958.38
 11.172   4949.57
 11.1813   4944.26
 11.1907   4922.88
 11.2001   4894.58
 11.2094   4995.06
 11.2188   4987.49
 11.2281   4859.3
 11.2375   4859.87
 11.2469   4801.39
 11.2562   4760.94
 11.2656   4725.06
 11.2749   4688.63
 11.2843   4666.27
 11.2937   4655.41
 11.303   4629.74
 11.3124   4606.52
 11.3217   4594.85
 11.3311   4593.94
 11.3405   4579.09
 11.3498   4553.45
 11.3592   4544.96
 11.3685   4539.79
 11.3779   4534.08
 11.3873   4526.2
 11.3966   4512.12
 11.406   4520.63
 11.4153   4504.5
 11.4247   4497.85
 11.4341   4478.45
 11.4434   4477.29
 11.4528   4484.68
 11.4621   4473.67
 11.4715   4468.25
 11.4809   4469.74
 11.4902   4466.14
 11.4996   4459.57
 11.5089   4456.95
 11.5183   4447.97
 11.5277   4448.94
 11.537   4438.62
 11.5464   4421.52
 11.5557   4415.27
 11.5651   4414.7
 11.5745   4419.72
 11.5838   4404.89
 11.5932   4408.3
 11.6025   4403.78
 11.6119   4403.27
 11.6213   4393.48
 11.6306   4389.85
 11.64   4388.19
 11.6493   4395.22
 11.6587   4386.75
 11.6681   4373.69
 11.6774   4360.52
 11.6868   4358.86
 11.6961   4363.32
 11.7055   4353.74
 11.7149   4346.31
 11.7242   4346.05
 11.7336   4355.75
 11.7429   4341.75
 11.7523   4335.09
 11.7617   4341.09
 11.771   4350.49
 11.7804   4343.38
 11.7897   4337.67
 11.7991   4340.84
 11.8085   4352.95
 11.8178   4363.95
 11.8272   4361.31
 11.8365   4377.5
 11.8459   4407.26
 11.8553   4426.51
 11.8646   4453.06
 11.874   4534.41
 11.8833   4701.62
 11.8927   4944.76
 11.9021   5129.51
 11.9114   5100.13
 11.9208   4939.11
 11.9301   4760.64
 11.9395   4670.01
 11.9489   4627.61
 11.9582   4630.87
 11.9676   4638.66
 11.9769   4634.65
 11.9863   4615.33
 11.9957   4614.15
 12.005   4592.38
 12.0144   4564.4
 12.0237   4545.27
 12.0331   4509.76
 12.0425   4493.29
 12.0518   4454.02
 12.0612   4436.32
 12.0705   4413.53
 12.0799   4395.96
 12.0893   4376.81
 12.0986   4356.7
 12.108   4334.27
 12.1173   4314.81
 12.1267   4294.07
 12.1361   4268.29
 12.1454   4240.41
 12.1548   4221.43
 12.1641   4199.84
 12.1735   4185.81
 12.1829   4170.67
 12.1922   4147.35
 12.2016   4141.56
 12.2109   4133.55
 12.2203   4131.73
 12.2297   4117.8
 12.239   4105.69
 12.2484   4106.21
 12.2577   4092.62
 12.2671   4097.5
 12.2765   4099.09
 12.2858   4091.19
 12.2952   4087.18
 12.3045   4085.22
 12.3139   4087.19
 12.3233   4092.11
 12.3326   4082.56
 12.342   4094.59
 12.3513   4092.38
 12.3607   4101.65
 12.3701   4119.31
 12.3794   4119.31
 12.3888   4122.33
 12.3981   4135.6
 12.4075   4144.7
 12.4169   4146.11
 12.4262   4142.76
 12.4356   4134.38
 12.4449   4133.8
 12.4543   4143.25
 12.4637   4129.92
 12.473   4127.25
 12.4824   4128.43
 12.4917   4114.5
 12.5011   4099.1
 12.5105   4098.22
 12.5198   4090.76
 12.5292   4082.95
 12.5385   4092.52
 12.5479   4090.97
 12.5573   4107.64
 12.5666   4091.67
 12.576   4096.64
 12.5853   4098.16
 12.5947   4074.17
 12.6041   4083.39
 12.6134   4093.64
 12.6228   4101.79
 12.6321   4123.07
 12.6415   4128.11
 12.6509   4141.7
 12.6602   4167.57
 12.6696   4179.21
 12.6789   4194.48
 12.6883   4216.14
 12.6977   4229.96