File: docs/GuiliangJun25_tutorial_output/integrals/MA2b-00005_om.chi
MA2b-00005.tif Azm= 0.00
2-Theta Angle (Degrees)
Intensity
       2500
 1.00702   7981.38
 1.01638   7947.22
 1.02574   7886.48
 1.0351   7841.39
 1.04446   7730.2
 1.05382   7711.93
 1.06318   7677.85
 1.07254   7661.52
 1.0819   7587.31
 1.09126   7570.41
 1.10062   7499
 1.10998   7459.5
 1.11934   7431.09
 1.1287   7401.84
 1.13806   7357.55
 1.14742   7328.23
 1.15678   7326.31
 1.16614   7307.11
 1.1755   7279.08
 1.18486   7281.41
 1.19422   7265.56
 1.20358   7230.95
 1.21294   7218.65
 1.2223   7243.83
 1.23166   7198.22
 1.24102   7189.37
 1.25038   7177.5
 1.25974   7180.66
 1.2691   7210.61
 1.27846   7212.71
 1.28782   7171.04
 1.29718   7177.79
 1.30654   7200.89
 1.3159   7172.32
 1.32526   7182.47
 1.33462   7183.97
 1.34398   7187.93
 1.35334   7235.11
 1.3627   7218.73
 1.37206   7264.52
 1.38142   7266.37
 1.39078   7316.1
 1.40014   7336.66
 1.4095   7383.2
 1.41886   7367.63
 1.42822   7422.99
 1.43758   7476.96
 1.44694   7524.52
 1.4563   7602.47
 1.46566   7624.29
 1.47502   7653.35
 1.48438   7704.06
 1.49374   7736.31
 1.5031   7795.22
 1.51246   7828.91
 1.52182   7826.22
 1.53118   7861.09
 1.54054   7882.53
 1.5499   7822.42
 1.55926   7830.62
 1.56862   7775.19
 1.57798   7781.73
 1.58734   7759.41
 1.5967   7759.33
 1.60606   7763.75
 1.61542   7760.5
 1.62478   7743.7
 1.63414   7763.22
 1.6435   7746.29
 1.65286   7778.97
 1.66222   7757.71
 1.67158   7757.42
 1.68094   7755.43
 1.6903   7778.84
 1.69966   7766.59
 1.70902   7786.29
 1.71838   7788.18
 1.72774   7790.24
 1.7371   7786.32
 1.74646   7796.42
 1.75582   7815.83
 1.76518   7844.74
 1.77454   7855.73
 1.7839   7880.47
 1.79326   7898.5
 1.80262   7934.13
 1.81198   7983.05
 1.82134   7993.54
 1.8307   8021.89
 1.84006   8066.85
 1.84942   8092.46
 1.85878   8128.81
 1.86814   8197.12
 1.8775   8231
 1.88686   8250.17
 1.89622   8314.09
 1.90558   8353.46
 1.91494   8376.12
 1.9243   8439.84
 1.93366   8492.48
 1.94302   8555.78
 1.95238   8580.78
 1.96174   8646.65
 1.9711   8695.53
 1.98046   8752.94
 1.98982   8808.48
 1.99918   8851.09
 2.00854   8907.34
 2.0179   8959.12
 2.02726   9050.42
 2.03662   9086.98
 2.04598   9143.99
 2.05534   9233.93
 2.0647   9321.51
 2.07406   9448.1
 2.08342   9642.21
 2.09278   9941.86
 2.10214   10515.5
 2.1115   11645.4
 2.12086   13951.2
 2.13022   18282.6
 2.13958   23841.6
 2.14894   28167.6
 2.1583   28720
 2.16766   26372.4
 2.17702   23051.2
 2.18638   20010.4
 2.19574   17382.9
 2.2051   15254.3
 2.21446   13836.1
 2.22382   12980.2
 2.23318   12466.4
 2.24254   12073.7
 2.2519   11615.1
 2.26126   11171.5
 2.27062   10838.3
 2.27998   10648.2
 2.28934   10556.2
 2.2987   10561.7
 2.30806   10559.8
 2.31742   10575.7
 2.32678   10616
 2.33614   10682.2
 2.3455   10738.4
 2.35486   10806.4
 2.36422   10836.1
 2.37358   10908.4
 2.38294   10966.7
 2.3923   11049.4
 2.40166   11123.3
 2.41102   11165.3
 2.42038   11243.1
 2.42974   11301.8
 2.4391   11378.8
 2.44846   11457.1
 2.45782   11539.2
 2.46718   11601.8
 2.47654   11666.5
 2.4859   11766
 2.49526   11844.6
 2.50462   11924.6
 2.51398   12001.3
 2.52334   12061.2
 2.5327   12126.8
 2.54206   12210.2
 2.55142   12258.6
 2.56078   12327.5
 2.57014   12399.9
 2.5795   12434.2
 2.58886   12508.7
 2.59822   12557.1
 2.60758   12599.1
 2.61694   12652.7
 2.6263   12686.4
 2.63566   12738.8
 2.64502   12781.3
 2.65438   12806.1
 2.66374   12839.8
 2.6731   12846.5
 2.68246   12851.9
 2.69182   12891.7
 2.70118   12913.5
 2.71054   12933.3
 2.7199   12955.3
 2.72926   12949.3
 2.73862   12936.8
 2.74798   12937.7
 2.75734   12895.7
 2.7667   12910.7
 2.77606   12895.1
 2.78542   12877.4
 2.79478   12855.7
 2.80414   12853
 2.8135   12815.8
 2.82286   12794.1
 2.83222   12777.5
 2.84158   12745.5
 2.85094   12686.5
 2.8603   12663.2
 2.86966   12629.9
 2.87902   12614.4
 2.88838   12564.7
 2.89774   12538.4
 2.9071   12512.6
 2.91646   12475.8
 2.92582   12436.1
 2.93518   12388.5
 2.94454   12349.4
 2.9539   12320.1
 2.96326   12255.9
 2.97262   12221.5
 2.98198   12183.4
 2.99134   12112
 3.0007   12061.4
 3.01006   12025
 3.01942   11969
 3.02878   11929.9
 3.03814   11879.3
 3.0475   11804.4
 3.05686   11754.3
 3.06622   11688.3
 3.07558   11618.6
 3.08494   11581.6
 3.0943   11536.5
 3.10366   11503.5
 3.11302   11445.6
 3.12238   11411.3
 3.13174   11379.8
 3.1411   11308
 3.15046   11283.8
 3.15982   11249.4
 3.16918   11212.3
 3.17854   11174.1
 3.1879   11148.4
 3.19726   11133.5
 3.20662   11098.7
 3.21598   11047.6
 3.22534   11026.9
 3.2347   11009.8
 3.24406   10960.1
 3.25342   10934
 3.26278   10913.1
 3.27214   10914.6
 3.2815   10855.8
 3.29086   10860.5
 3.30022   10850.2
 3.30958   10847.8
 3.31894   10834.3
 3.3283   10834.1
 3.33766   10834.1
 3.34702   10808.3
 3.35638   10785.9
 3.36574   10794.6
 3.3751   10801.9
 3.38446   10770.6
 3.39382   10774.6
 3.40318   10784.4
 3.41254   10819.9
 3.4219   10790.9
 3.43126   10789.6
 3.44062   10814.2
 3.44998   10814.9
 3.45934   10799.2
 3.4687   10809.6
 3.47806   10820.5
 3.48742   10827.9
 3.49678   10802.6
 3.50614   10808.2
 3.5155   10826.9
 3.52486   10815.7
 3.53422   10787.5
 3.54358   10831.3
 3.55294   10853.3
 3.5623   10777.1
 3.57166   10799.5
 3.58102   10850.7
 3.59038   10814.6
 3.59974   10766.4
 3.6091   10789.8
 3.61846   10838
 3.62782   10758.5
 3.63718   10722.2
 3.64654   10778.9
 3.6559   10806.3
 3.66526   10708.4
 3.67462   10635.2
 3.68398   10692.5
 3.69334   10684.8
 3.7027   10536.4
 3.71206   10546.2
 3.72142   10533.3
 3.73078   10409.4
 3.74014   10251.2
 3.7495   10250.2
 3.75886   10193.1
 3.76822   10041.9
 3.77758   9917.76
 3.78694   9919.46
 3.7963   9909.29
 3.80566   9708.72
 3.81502   9649.19
 3.82438   9724.26
 3.83374   9649.17
 3.8431   9466.53
 3.85246   9516.42
 3.86182   9439.14
 3.87118   9421.46
 3.88054   9259.41
 3.8899   9243.54
 3.89926   9228.08
 3.90862   9097.42
 3.91798   9011.79
 3.92734   9039.69
 3.9367   8967.63
 3.94606   8890.64
 3.95542   8877.58
 3.96478   8818.95
 3.97414   8773.46
 3.9835   8715.83
 3.99286   8650.39
 4.00222   8699.54
 4.01158   8628.95
 4.02094   8495.64
 4.0303   8520.62
 4.03966   8524.84
 4.04902   8420.39
 4.05838   8358.27
 4.06774   8403.15
 4.0771   8343.8
 4.08646   8268.36
 4.09582   8190.4
 4.10518   8225.86
 4.11454   8219.2
 4.1239   8109
 4.13326   8093.05
 4.14262   8116.56
 4.15198   8084.44
 4.16134   7942.14
 4.1707   7977.9
 4.18006   8010.62
 4.18942   8008.38
 4.19878   7924.74
 4.20814   7956.51
 4.2175   8080.85
 4.22686   7968.07
 4.23622   7934.97
 4.24558   8065.86
 4.25494   8191.8
 4.2643   8345.32
 4.27366   8776.65
 4.28302   9208.16
 4.29238   9576.82
 4.30174   9642.68
 4.3111   9574.21
 4.32046   9382.42
 4.32982   9124.44
 4.33918   8900.67
 4.34854   8765.62
 4.3579   8679.27
 4.36726   8493.77
 4.37662   8317.58
 4.38598   8174.69
 4.39534   8063.86
 4.4047   7950.73
 4.41406   7831.48
 4.42342   7763.28
 4.43278   7778.2
 4.44214   7682.39
 4.4515   7592.23
 4.46086   7587.76
 4.47022   7567.87
 4.47958   7485.95
 4.48894   7458.35
 4.4983   7409.57
 4.50766   7338.3
 4.51702   7227.86
 4.52638   7164.67
 4.53574   7151.17
 4.5451   7106.7
 4.55446   7055
 4.56382   7038.74
 4.57318   7013.48
 4.58254   6989.84
 4.5919   6944.07
 4.60126   6892.81
 4.61062   6875.32
 4.61998   6831.62
 4.62934   6813.25
 4.6387   6800.77
 4.64806   6763.38
 4.65742   6730.4
 4.66678   6734.4
 4.67614   6692.54
 4.6855   6691.2
 4.69486   6676.21
 4.70422   6684.56
 4.71358   6716.75
 4.72294   6791.11
 4.7323   6844
 4.74166   6926.52
 4.75102   7004.84
 4.76038   7105.3
 4.76974   7244.48
 4.7791   7485.19
 4.78846   7805.88
 4.79782   8171.5
 4.80718   8619.97
 4.81654   8984.77
 4.8259   9317.81
 4.83526   9489.39
 4.84462   9336.44
 4.85398   8922.34
 4.86334   8352.93
 4.8727   7826.7
 4.88206   7510.71
 4.89142   7385.22
 4.90078   7412.32
 4.91014   7557.46
 4.9195   7706.13
 4.92886   7887.98
 4.93822   8069.68
 4.94758   8327.59
 4.95694   8647.24
 4.9663   9060.21
 4.97566   9483.76
 4.98502   9798.62
 4.99438   9947.79
 5.00374   9780.77
 5.0131   9336.15
 5.02246   8732.13
 5.03182   8116.82
 5.04118   7591.78
 5.05054   7211.82
 5.0599   6966.62
 5.06926   6872.3
 5.07862   6916.21
 5.08798   7095.74
 5.09734   7323.17
 5.1067   8085.17
 5.11606   7924.84
 5.12542   8782.61
 5.13478   11363.4
 5.14414   13174.7
 5.1535   12083.8
 5.16286   9789.21
 5.17222   7836.02
 5.18158   6783
 5.19094   6824.27
 5.2003   6608.78
 5.20966   6389.29
 5.21902   6293.02
 5.22838   6169.07
 5.23774   6116.13
 5.2471   6069.07
 5.25646   6009.97
 5.26582   5973.42
 5.27518   5960.92
 5.28454   5935.3
 5.2939   5930.92
 5.30326   5906.18
 5.31262   5900.52
 5.32198   5910.09
 5.33134   5883.43
 5.3407   5865.72
 5.35006   5864.69
 5.35942   5864.03
 5.36878   5859
 5.37814   5856.08
 5.3875   5855.24
 5.39686   5876.17
 5.40622   5889.15
 5.41558   5877.9
 5.42494   5905.47
 5.4343   5945.58
 5.44366   5955.97
 5.45302   5992.36
 5.46238   6041.58
 5.47174   6115.22
 5.4811   6206.29
 5.49046   6342.76
 5.49982   6523.52
 5.50918   6834.56
 5.51854   7242.36
 5.5279   7833.28
 5.53726   8649.53
 5.54662   9548.41
 5.55598   10323.7
 5.56534   10685.4
 5.5747   10674
 5.58406   10315.1
 5.59342   9761.82
 5.60278   9141.51
 5.61214   8577.4
 5.6215   8092.71
 5.63086   7651.02
 5.64022   7306.62
 5.64958   7036.25
 5.65894   6805.03
 5.6683   6628.1
 5.67766   6459.54
 5.68702   6352.56
 5.69638   6255.44
 5.70574   6184.33
 5.7151   6139.19
 5.72446   6127.93
 5.73382   6109.73
 5.74318   6101.47
 5.75254   6123.76
 5.7619   6171.23
 5.77126   6145.58
 5.78062   6133.34
 5.78998   6115.53
 5.79934   6099.94
 5.8087   6103.23
 5.81806   6097.73
 5.82742   6136.64
 5.83678   6166.7
 5.84614   6213.19
 5.8555   6271.48
 5.86486   6387.26
 5.87422   6491.14
 5.88358   6678.75
 5.89294   6869.15
 5.9023   7144.01
 5.91166   7701.83
 5.92102   8367.22
 5.93038   8922.74
 5.93974   9967.76
 5.9491   10217.8
 5.95846   9832.21
 5.96782   9779.65
 5.97718   9573.65
 5.98654   9305.91
 5.9959   8996.5
 6.00526   8578
 6.01462   8131.81
 6.02398   7722.45
 6.03334   7306.87
 6.0427   6993.49
 6.05206   6755.21
 6.06142   6546.46
 6.07078   6371.02
 6.08014   6271.8
 6.0895   6194.84
 6.09886   6121.64
 6.10822   6048.9
 6.11758   6017.7
 6.12694   5995.02
 6.1363   5985.81
 6.14566   5961.25
 6.15502   5952.09
 6.16438   5951.62
 6.17374   5923.98
 6.1831   5918.51
 6.19246   5922.28
 6.20182   5925.72
 6.21118   5915.77
 6.22054   5920.33
 6.2299   5963.14
 6.23926   5934.53
 6.24862   5930.92
 6.25798   5942.28
 6.26734   5951.65
 6.2767   5954.46
 6.28606   5928.21
 6.29542   5954.56
 6.30478   5977.33
 6.31414   5968.82
 6.3235   5968
 6.33286   5984.41
 6.34222   6002.01
 6.35158   5982.92
 6.36094   5989.55
 6.3703   5997.95
 6.37966   5995.42
 6.38902   6006.79
 6.39838   5998.11
 6.40774   6027.39
 6.4171   6049.41
 6.42646   6048.21
 6.43582   6062.88
 6.44518   6112.02
 6.45454   6081.71
 6.4639   6077.71
 6.47326   6062.74
 6.48262   6085.22
 6.49198   6102.52
 6.50134   6076.28
 6.5107   6096.4
 6.52006   6129.52
 6.52942   6125.15
 6.53878   6141.59
 6.54814   6181.68
 6.5575   6184.15
 6.56686   6218.19
 6.57622   6213.31
 6.58558   6247.91
 6.59494   6267.03
 6.6043   6264.85
 6.61366   6266.1
 6.62302   6297.93
 6.63238   6339.3
 6.64174   6330.75
 6.6511   6356.94
 6.66046   6405.81
 6.66982   6405.08
 6.67918   6421.77
 6.68854   6418.29
 6.6979   6445.62
 6.70726   6508.73
 6.71662   6508.41
 6.72598   6546.43
 6.73534   6613.4
 6.7447   6632.26
 6.75406   6648.64
 6.76342   6680.99
 6.77278   6768.53
 6.78214   6764.19
 6.7915   6780.99
 6.80086   6786.19
 6.81022   6812.95
 6.81958   6838.8
 6.82894   6819.81
 6.8383   6863.7
 6.84766   6971.59
 6.85702   6984.02
 6.86638   7082.59
 6.87574   7196.47
 6.8851   7324.2
 6.89446   7472.39
 6.90382   7656.35
 6.91318   7841.77
 6.92254   8030.71
 6.9319   8179.01
 6.94126   8263.03
 6.95062   8335.8
 6.95998   8329.71
 6.96934   8224.95
 6.9787   8195.67
 6.98806   8116.29
 6.99742   8016.17
 7.00678   7979.28
 7.01614   7885.89
 7.0255   7829.06
 7.03486   7753.38
 7.04422   7668.89
 7.05358   7591.93
 7.06294   7594.39
 7.0723   7484.61
 7.08166   7319.16
 7.09102   7146.42
 7.10038   7058.36
 7.10974   6966.29
 7.1191   6899.49
 7.12846   6867.06
 7.13782   6830.63
 7.14718   6799.8
 7.15654   6774.15
 7.1659   6750.11
 7.17526   6767.82
 7.18462   6741.28
 7.19398   6724.44
 7.20334   6706.79
 7.2127   6727.09
 7.22206   6683.35
 7.23142   6689.05
 7.24078   6708.85
 7.25014   6724.05
 7.2595   6719.33
 7.26886   6728.7
 7.27822   6734.18
 7.28758   6734.42
 7.29694   6712.67
 7.3063   6731.62
 7.31566   6745.62
 7.32502   6771.07
 7.33438   6786.83
 7.34374   6836.02
 7.3531   6865.37
 7.36246   6900.38
 7.37182   6946.95
 7.38118   6970.36
 7.39054   6986.69
 7.3999   7031.98
 7.40926   7056.75
 7.41862   7120.53
 7.42798   7188.61
 7.43734   7249.93
 7.4467   7305.19
 7.45606   7381.74
 7.46542   7405.18
 7.47478   7428.28
 7.48414   7410.54
 7.4935   7384.96
 7.50286   7372.56
 7.51222   7353.32
 7.52158   7314.7
 7.53094   7273.04
 7.5403   7256.24
 7.54966   7230.06
 7.55902   7209.14
 7.56838   7179.5
 7.57774   7154.7
 7.5871   7100.12
 7.59646   7048.14
 7.60582   6958.57
 7.61518   6874.54
 7.62454   6727.03
 7.6339   6608.28
 7.64326   6503.23
 7.65262   6425.4
 7.66198   6345.77
 7.67134   6290.75
 7.6807   6248.32
 7.69006   6198.88
 7.69942   6158.6
 7.70878   6129.84
 7.71814   6106.68
 7.7275   6079.88
 7.73686   6058.75
 7.74622   6035.82
 7.75558   5984.31
 7.76494   5978.94
 7.7743   5967.64
 7.78366   5945.62
 7.79302   5926.1
 7.80238   5879.23
 7.81174   5875.61
 7.8211   5859.8
 7.83046   5810.42
 7.83982   5807.06
 7.84918   5817.29
 7.85854   5775.07
 7.8679   5745.01
 7.87726   5761.69
 7.88662   5748.78
 7.89598   5720.79
 7.90534   5699.64
 7.9147   5693.23
 7.92406   5689.92
 7.93342   5690.25
 7.94278   5664.32
 7.95214   5644.69
 7.9615   5663.5
 7.97086   5629.21
 7.98022   5603.18
 7.98958   5619.24
 7.99894   5617.45
 8.0083   5590.63
 8.01766   5566.14
 8.02702   5568.22
 8.03638   5570.87
 8.04574   5560.28
 8.0551   5537.61
 8.06446   5556.29
 8.07382   5613.76
 8.08318   5639.99
 8.09254   5677.3
 8.1019   5734.57
 8.11126   5786.28
 8.12062   5804.05
 8.12998   5794.36
 8.13934   5820.95
 8.1487   5858.31
 8.15806   5852.5
 8.16742   5884.99
 8.17678   5940.65
 8.18614   6006.56
 8.1955   6087.11
 8.20486   6212.86
 8.21422   6385.17
 8.22358   6585.27
 8.23294   6755.11
 8.2423   6910.28
 8.25166   7086.68
 8.26102   7224.41
 8.27038   7351.01
 8.27974   7455.61
 8.2891   7506.6
 8.29846   7469.76
 8.30782   7320.21
 8.31718   7065.03
 8.32654   6745.76
 8.3359   6464.54
 8.34526   6211.36
 8.35462   6036.02
 8.36398   5940.73
 8.37334   6032.85
 8.3827   6337.01
 8.39206   6412.16
 8.40142   6935.28
 8.41078   7099.31
 8.42014   6870.9
 8.4295   6311.85
 8.43886   6187.17
 8.44822   5913.83
 8.45758   5865
 8.46694   5877.48
 8.4763   5928.41
 8.48566   5999.07
 8.49502   6082.2
 8.50438   6186.28
 8.51374   6316.93
 8.5231   6446.56
 8.53246   6574.73
 8.54182   6712.28
 8.55118   6860.13
 8.56054   6944.85
 8.5699   7002.72
 8.57926   7025.1
 8.58862   7012.89
 8.59798   6936.07
 8.60734   6809.3
 8.6167   6658.33
 8.62606   6497.17
 8.63542   6332.44
 8.64478   6185.03
 8.65414   6048.83
 8.6635   5922.79
 8.67286   5827.69
 8.68222   5733.8
 8.69158   5662.18
 8.70094   5611.53
 8.7103   5556.32
 8.71966   5522.21
 8.72902   5488.23
 8.73838   5446.42
 8.74774   5411.32
 8.7571   5390.96
 8.76646   5371.26
 8.77582   5321.22
 8.78518   5315.13
 8.79454   5309.49
 8.8039   5283.16
 8.81326   5258.74
 8.82262   5231.64
 8.83198   5210.38
 8.84134   5200.12
 8.8507   5154.17
 8.86006   5106.19
 8.86942   5082.72
 8.87878   5054.41
 8.88814   5038.03
 8.8975   5024.75
 8.90686   5021.17
 8.91622   5027.2
 8.92558   5011.8
 8.93494   4997.65
 8.9443   4995.67
 8.95366   5003.78
 8.96302   5004.02
 8.97238   5000.56
 8.98174   5005.36
 8.9911   4994.98
 9.00046   4992.71
 9.00982   4994.82
 9.01918   4977.05
 9.02854   4962.29
 9.0379   4964.16
 9.04726   4949.73
 9.05662   4943.74
 9.06598   4953.01
 9.07534   4947.24
 9.0847   4949.15
 9.09406   4949.11
 9.10342   4960.1
 9.11278   4969.65
 9.12214   4986.19
 9.1315   4997.5
 9.14086   5007.77
 9.15022   5033.75
 9.15958   5049.72
 9.16894   5069.25
 9.1783   5092.36
 9.18766   5131.69
 9.19702   5158.68
 9.20638   5187.83
 9.21574   5232.08
 9.2251   5255.81
 9.23446   5297.35
 9.24382   5340.65
 9.25318   5378.75
 9.26254   5431.15
 9.2719   5480.92
 9.28126   5546.86
 9.29062   5586.59
 9.29998   5631.4
 9.30934   5669.85
 9.3187   5699.44
 9.32806   5728.66
 9.33742   5735.03
 9.34678   5728.91
 9.35614   5704.1
 9.3655   5682.36
 9.37486   5610.64
 9.38422   5548.52
 9.39358   5480.13
 9.40294   5416
 9.4123   5349.45
 9.42166   5299.94
 9.43102   5261.41
 9.44038   5222.19
 9.44974   5196.78
 9.4591   5175.92
 9.46846   5174.22
 9.47782   5182.93
 9.48718   5181.49
 9.49654   5196.96
 9.5059   5198.53
 9.51526   5211.3
 9.52462   5200.97
 9.53398   5204.85
 9.54334   5219.18
 9.5527   5239.07
 9.56206   5248.43
 9.57142   5269.94
 9.58078   5296.86
 9.59014   5318.09
 9.5995   5338.97
 9.60886   5367.3
 9.61822   5390.59
 9.62758   5399.48
 9.63694   5392.68
 9.6463   5391.97
 9.65566   5400.89
 9.66502   5416.35
 9.67438   5435.26
 9.68374   5428.9
 9.6931   5423.78
 9.70246   5421.09
 9.71182   5378.37
 9.72118   5311.64
 9.73054   5260.25
 9.7399   5214.91
 9.74926   5170.61
 9.75862   5143.79
 9.76798   5139.9
 9.77734   5147.71
 9.7867   5166.28
 9.79606   5214.71
 9.80542   5283.85
 9.81478   5423.86
 9.82414   5684.27
 9.8335   6381.88
 9.84286   7541.89
 9.85222   8991.4
 9.86158   11004.6
 9.87094   10428.8
 9.8803   8456.82
 9.88966   6824.98
 9.89902   6111.97
 9.90838   5677.76
 9.91774   5514.87
 9.9271   5456.3
 9.93646   5416.99
 9.94582   5403.67
 9.95518   5405.71
 9.96454   5394.62
 9.9739   5407.2
 9.98326   5402.39
 9.99262   5411.41
 10.002   5406.81
 10.0113   5375.37
 10.0207   5363.29
 10.0301   5333.55
 10.0394   5309.55
 10.0488   5292.32
 10.0581   5277.57
 10.0675   5262.68
 10.0769   5248.67
 10.0862   5242.59
 10.0956   5239.34
 10.1049   5226.49
 10.1143   5225.02
 10.1237   5243.99
 10.133   5235.14
 10.1424   5256.1
 10.1517   5276.69
 10.1611   5304.65
 10.1705   5342.38
 10.1798   5364.3
 10.1892   5390.98
 10.1985   5465.63
 10.2079   5519.26
 10.2173   5573.98
 10.2266   5596.06
 10.236   5630.76
 10.2453   5665.51
 10.2547   5677.27
 10.2641   5761.02
 10.2734   5903.24
 10.2828   5734.83
 10.2921   5980.67
 10.3015   6066.77
 10.3109   5962.22
 10.3202   5766.5
 10.3296   5928.09
 10.3389   5492.24
 10.3483   5356.89
 10.3577   5271.99
 10.367   5230.37
 10.3764   5230.03
 10.3857   5227.5
 10.3951   5221.35
 10.4045   5218.24
 10.4138   5226.48
 10.4232   5255.64
 10.4325   5262.3
 10.4419   5296.47
 10.4513   5316.47
 10.4606   5351.09
 10.47   5378.72
 10.4793   5393.61
 10.4887   5401.67
 10.4981   5407.8
 10.5074   5414.87
 10.5168   5390.99
 10.5261   5361.51
 10.5355   5355.4
 10.5449   5311.17
 10.5542   5279.77
 10.5636   5259.75
 10.5729   5220.78
 10.5823   5184.51
 10.5917   5165.72
 10.601   5140.37
 10.6104   5122.18
 10.6197   5107.76
 10.6291   5098.4
 10.6385   5083.41
 10.6478   5068.61
 10.6572   5070.33
 10.6665   5067.9
 10.6759   5059.12
 10.6853   5043.52
 10.6946   5053.56
 10.704   5074.92
 10.7133   5082.3
 10.7227   5086.34
 10.7321   5105.25
 10.7414   5127.79
 10.7508   5166.61
 10.7601   5157.28
 10.7695   5165.66
 10.7789   5179.98
 10.7882   5179.23
 10.7976   5164.35
 10.8069   5142.58
 10.8163   5137.64
 10.8257   5126.53
 10.835   5117.72
 10.8444   5109.49
 10.8537   5092.79
 10.8631   5082.93
 10.8725   5059.66
 10.8818   5031.37
 10.8912   5007.24
 10.9005   4998.22
 10.9099   4962.23
 10.9193   4937.76
 10.9286   4917.14
 10.938   4905.49
 10.9473   4890.02
 10.9567   4867.68
 10.9661   4854.03
 10.9754   4848.58
 10.9848   4838.98
 10.9941   4832.12
 11.0035   4818.38
 11.0129   4824.64
 11.0222   4826.36
 11.0316   4829.33
 11.0409   4836.04
 11.0503   4835.41
 11.0597   4848.04
 11.069   4848.32
 11.0784   4853.33
 11.0877   4877.11
 11.0971   4908.56
 11.1065   4920.38
 11.1158   4941.8
 11.1252   4962.56
 11.1345   4989.75
 11.1439   5004.92
 11.1533   5006.44
 11.1626   5001.81
 11.172   4990.02
 11.1813   4980.53
 11.1907   4958.52
 11.2001   4921.72
 11.2094   4907.29
 11.2188   4896.8
 11.2281   4883.28
 11.2375   4846.86
 11.2469   4826
 11.2562   4799.09
 11.2656   4768.59
 11.2749   4729.18
 11.2843   4713.58
 11.2937   4706.2
 11.303   4687.24
 11.3124   4662.63
 11.3217   4645.24
 11.3311   4644.61
 11.3405   4619.24
 11.3498   4603.24
 11.3592   4590.86
 11.3685   4585.57
 11.3779   4586.98
 11.3873   4565.07
 11.3966   4557.44
 11.406   4552.95
 11.4153   4548.27
 11.4247   4541.81
 11.4341   4524.18
 11.4434   4529.49
 11.4528   4529.6
 11.4621   4512.99
 11.4715   4503.94
 11.4809   4507.59
 11.4902   4505.57
 11.4996   4493.32
 11.5089   4495.01
 11.5183   4484.54
 11.5277   4480.01
 11.537   4478.59
 11.5464   4463.63
 11.5557   4455.98
 11.5651   4455.43
 11.5745   4443.98
 11.5838   4435.71
 11.5932   4437.03
 11.6025   4437.24
 11.6119   4437.9
 11.6213   4438.87
 11.6306   4431.44
 11.64   4424
 11.6493   4416.4
 11.6587   4403.01
 11.6681   4393.56
 11.6774   4389.08
 11.6868   4381.49
 11.6961   4378.76
 11.7055   4377.52
 11.7149   4373.87
 11.7242   4382.58
 11.7336   4371.04
 11.7429   4359.81
 11.7523   4368.75
 11.7617   4378.2
 11.771   4363.84
 11.7804   4374.72
 11.7897   4369.31
 11.7991   4379.98
 11.8085   4383.72
 11.8178   4383.42
 11.8272   4390.13
 11.8365   4407.49
 11.8459   4425.02
 11.8553   4445.22
 11.8646   4480.47
 11.874   4532.58
 11.8833   4569.08
 11.8927   4642.76
 11.9021   4697.36
 11.9114   4709.27
 11.9208   4678.01
 11.9301   4655.19
 11.9395   4647
 11.9489   4617.02
 11.9582   4604.42
 11.9676   4626.99
 11.9769   4622.03
 11.9863   4614.88
 11.9957   4602.71
 12.005   4600.1
 12.0144   4598.74
 12.0237   4566.37
 12.0331   4549.28
 12.0425   4522.42
 12.0518   4498.94
 12.0612   4478.56
 12.0705   4452.96
 12.0799   4444.84
 12.0893   4428.94
 12.0986   4402.66
 12.108   4400.8
 12.1173   4375.13
 12.1267   4351.88
 12.1361   4317.11
 12.1454   4287.21
 12.1548   4271.24
 12.1641   4254.37
 12.1735   4223.4
 12.1829   4199.43
 12.1922   4191.22
 12.2016   4182.72
 12.2109   4171.49
 12.2203   4159.59
 12.2297   4143.54
 12.239   4132.57
 12.2484   4126.95
 12.2577   4125.6
 12.2671   4120.31
 12.2765   4122.79
 12.2858   4116.02
 12.2952   4115.47
 12.3045   4113.61
 12.3139   4109.84
 12.3233   4102.64
 12.3326   4116.29
 12.342   4114.12
 12.3513   4126.94
 12.3607   4127.7
 12.3701   4145.55
 12.3794   4145.35
 12.3888   4155.26
 12.3981   4161.23
 12.4075   4163.03
 12.4169   4161.1
 12.4262   4168.34
 12.4356   4168.09
 12.4449   4179.38
 12.4543   4169.12
 12.4637   4162.59
 12.473   4161.19
 12.4824   4161.81
 12.4917   4160.12
 12.5011   4142.42
 12.5105   4137.33
 12.5198   4129.02
 12.5292   4129.09
 12.5385   4123.12
 12.5479   4123.8
 12.5573   4119.54
 12.5666   4119.7
 12.576   4129.45
 12.5853   4128.8
 12.5947   4137.87
 12.6041   4145.49
 12.6134   4150.49
 12.6228   4173.84
 12.6321   4185.88
 12.6415   4193.72
 12.6509   4205.19
 12.6602   4222.45
 12.6696   4231.32
 12.6789   4243.99
 12.6883   4257
 12.6977   4267.17