File: docs/GuiliangJun25_tutorial_output/integrals/MA2b-00006_om.chi
MA2b-00006.tif Azm= 0.00
2-Theta Angle (Degrees)
Intensity
       2500
 1.00702   7921.06
 1.01638   7862.06
 1.02574   7781.14
 1.0351   7718.94
 1.04446   7691.41
 1.05382   7693.82
 1.06318   7603.64
 1.07254   7569.12
 1.0819   7538.94
 1.09126   7507.63
 1.10062   7458.73
 1.10998   7398.81
 1.11934   7398.35
 1.1287   7333.69
 1.13806   7288.42
 1.14742   7279.07
 1.15678   7266.38
 1.16614   7196.42
 1.1755   7217.05
 1.18486   7212.82
 1.19422   7168.57
 1.20358   7149.01
 1.21294   7139.61
 1.2223   7139.17
 1.23166   7094.32
 1.24102   7125.36
 1.25038   7105.16
 1.25974   7118.85
 1.2691   7089.15
 1.27846   7102.55
 1.28782   7121.98
 1.29718   7116.59
 1.30654   7123.91
 1.3159   7111.89
 1.32526   7131.46
 1.33462   7159.34
 1.34398   7133.64
 1.35334   7155.2
 1.3627   7191.82
 1.37206   7191.75
 1.38142   7200.01
 1.39078   7210.98
 1.40014   7244.13
 1.4095   7303.31
 1.41886   7338.96
 1.42822   7362.14
 1.43758   7388.28
 1.44694   7433.81
 1.4563   7497.63
 1.46566   7552.51
 1.47502   7604.37
 1.48438   7652.24
 1.49374   7667.97
 1.5031   7715.49
 1.51246   7744.57
 1.52182   7779.62
 1.53118   7774
 1.54054   7771.24
 1.5499   7781.05
 1.55926   7736
 1.56862   7751.5
 1.57798   7715.65
 1.58734   7684.51
 1.5967   7667.34
 1.60606   7703.79
 1.61542   7685.8
 1.62478   7670.31
 1.63414   7675.04
 1.6435   7690.8
 1.65286   7669.99
 1.66222   7694
 1.67158   7695.62
 1.68094   7693.43
 1.6903   7701.61
 1.69966   7700.31
 1.70902   7720.74
 1.71838   7734.49
 1.72774   7721.71
 1.7371   7750.57
 1.74646   7753.55
 1.75582   7776.45
 1.76518   7774.65
 1.77454   7796.07
 1.7839   7843.35
 1.79326   7841.75
 1.80262   7868.86
 1.81198   7905.73
 1.82134   7919.47
 1.8307   7963.26
 1.84006   8008.09
 1.84942   8065.4
 1.85878   8083.49
 1.86814   8118.38
 1.8775   8157.44
 1.88686   8206.19
 1.89622   8247.71
 1.90558   8295.64
 1.91494   8307.17
 1.9243   8381.28
 1.93366   8471.9
 1.94302   8483.3
 1.95238   8543.32
 1.96174   8585.84
 1.9711   8643.41
 1.98046   8703.09
 1.98982   8767.9
 1.99918   8780.48
 2.00854   8834.92
 2.0179   8895.7
 2.02726   8943.62
 2.03662   9027.03
 2.04598   9099.42
 2.05534   9160.08
 2.0647   9266.12
 2.07406   9401.24
 2.08342   9648.94
 2.09278   9994.84
 2.10214   10691.7
 2.1115   12126.6
 2.12086   15071.7
 2.13022   20280.2
 2.13958   26622.2
 2.14894   30681.3
 2.1583   30017.6
 2.16766   26127.7
 2.17702   21821.4
 2.18638   18361.3
 2.19574   15860.1
 2.2051   14062.6
 2.21446   12892.1
 2.22382   12221.1
 2.23318   11842.3
 2.24254   11539.6
 2.2519   11236.7
 2.26126   10887.2
 2.27062   10624.2
 2.27998   10505.2
 2.28934   10443.8
 2.2987   10448.8
 2.30806   10463.1
 2.31742   10517.8
 2.32678   10569.5
 2.33614   10601.8
 2.3455   10619.2
 2.35486   10681.8
 2.36422   10741.7
 2.37358   10827.6
 2.38294   10874.8
 2.3923   10939.6
 2.40166   11006.4
 2.41102   11115.3
 2.42038   11152.5
 2.42974   11236.9
 2.4391   11306.5
 2.44846   11392.1
 2.45782   11433
 2.46718   11512.5
 2.47654   11595.1
 2.4859   11677.7
 2.49526   11750.5
 2.50462   11817.9
 2.51398   11884.5
 2.52334   11950.2
 2.5327   12033.8
 2.54206   12107.9
 2.55142   12149.4
 2.56078   12224
 2.57014   12299.7
 2.5795   12325.1
 2.58886   12424.5
 2.59822   12465.9
 2.60758   12506.5
 2.61694   12549.9
 2.6263   12590.2
 2.63566   12650.6
 2.64502   12675.2
 2.65438   12668.6
 2.66374   12729
 2.6731   12747.5
 2.68246   12757.1
 2.69182   12794.8
 2.70118   12829.1
 2.71054   12843.4
 2.7199   12853.8
 2.72926   12850.9
 2.73862   12842
 2.74798   12819.5
 2.75734   12809.7
 2.7667   12816.1
 2.77606   12801.8
 2.78542   12747.6
 2.79478   12750.9
 2.80414   12738.6
 2.8135   12714.5
 2.82286   12686.3
 2.83222   12661.8
 2.84158   12641.1
 2.85094   12615.1
 2.8603   12582.5
 2.86966   12540.1
 2.87902   12511.1
 2.88838   12483.1
 2.89774   12458.4
 2.9071   12415.7
 2.91646   12355.2
 2.92582   12310.3
 2.93518   12291.1
 2.94454   12263.8
 2.9539   12246.4
 2.96326   12154.6
 2.97262   12119.9
 2.98198   12091.1
 2.99134   12004.5
 3.0007   11967.5
 3.01006   11906
 3.01942   11881.6
 3.02878   11814.6
 3.03814   11769.9
 3.0475   11718.4
 3.05686   11648.6
 3.06622   11584.3
 3.07558   11517.1
 3.08494   11479.2
 3.0943   11440.6
 3.10366   11396.3
 3.11302   11348.6
 3.12238   11333
 3.13174   11296.1
 3.1411   11247.9
 3.15046   11199.9
 3.15982   11180.9
 3.16918   11132.8
 3.17854   11089.2
 3.1879   11098.6
 3.19726   11062.2
 3.20662   11051.2
 3.21598   10989.7
 3.22534   10983.3
 3.2347   10943.7
 3.24406   10896.9
 3.25342   10855.1
 3.26278   10866.7
 3.27214   10839.3
 3.2815   10815.9
 3.29086   10804.2
 3.30022   10797
 3.30958   10786.2
 3.31894   10744.2
 3.3283   10759.1
 3.33766   10743.7
 3.34702   10748.9
 3.35638   10729.4
 3.36574   10747.2
 3.3751   10730.5
 3.38446   10725.4
 3.39382   10711.9
 3.40318   10735.6
 3.41254   10738.6
 3.4219   10723.7
 3.43126   10717.2
 3.44062   10733.5
 3.44998   10752.6
 3.45934   10721.5
 3.4687   10744.5
 3.47806   10753.8
 3.48742   10757.7
 3.49678   10741.8
 3.50614   10764
 3.5155   10758.2
 3.52486   10745.1
 3.53422   10722.6
 3.54358   10774.3
 3.55294   10757.8
 3.5623   10726.2
 3.57166   10700.4
 3.58102   10768.2
 3.59038   10727.1
 3.59974   10685
 3.6091   10714.3
 3.61846   10762.4
 3.62782   10688.8
 3.63718   10655.3
 3.64654   10727.5
 3.6559   10741.2
 3.66526   10674.9
 3.67462   10583.3
 3.68398   10645.3
 3.69334   10588
 3.7027   10476.6
 3.71206   10395.4
 3.72142   10401.9
 3.73078   10275.2
 3.74014   10139.5
 3.7495   10137.1
 3.75886   10092.7
 3.76822   9951.97
 3.77758   9847.71
 3.78694   9887.92
 3.7963   9845.01
 3.80566   9656.24
 3.81502   9589.36
 3.82438   9652.64
 3.83374   9575.63
 3.8431   9390.09
 3.85246   9380.15
 3.86182   9366.43
 3.87118   9351.25
 3.88054   9220.22
 3.8899   9153.02
 3.89926   9127.92
 3.90862   9026.18
 3.91798   8927.7
 3.92734   9006.95
 3.9367   8896.93
 3.94606   8813.67
 3.95542   8816.08
 3.96478   8765.59
 3.97414   8690.41
 3.9835   8631.15
 3.99286   8562.81
 4.00222   8583.98
 4.01158   8527.81
 4.02094   8417.17
 4.0303   8442.57
 4.03966   8463.25
 4.04902   8322.06
 4.05838   8305.53
 4.06774   8312.01
 4.0771   8281.83
 4.08646   8178.79
 4.09582   8113.42
 4.10518   8157.56
 4.11454   8141.81
 4.1239   8020.95
 4.13326   8000.84
 4.14262   8046.75
 4.15198   8037
 4.16134   7918.76
 4.1707   7897.07
 4.18006   7926.52
 4.18942   7947.59
 4.19878   7839.1
 4.20814   7876.27
 4.2175   8000.09
 4.22686   7927.75
 4.23622   7860.53
 4.24558   8042.95
 4.25494   8222.5
 4.2643   8412.19
 4.27366   8914.5
 4.28302   9440.89
 4.29238   9810.5
 4.30174   9840.24
 4.3111   9674.09
 4.32046   9359.98
 4.32982   9029.54
 4.33918   8731.7
 4.34854   8548.37
 4.3579   8435.37
 4.36726   8237.09
 4.37662   8087.25
 4.38598   7983.26
 4.39534   7919.47
 4.4047   7840.56
 4.41406   7710.85
 4.42342   7645.26
 4.43278   7673.35
 4.44214   7594
 4.4515   7509.85
 4.46086   7514.82
 4.47022   7510.12
 4.47958   7441.62
 4.48894   7402.5
 4.4983   7366.3
 4.50766   7282.69
 4.51702   7172.59
 4.52638   7132.28
 4.53574   7102.07
 4.5451   7047.39
 4.55446   7001.39
 4.56382   6965.88
 4.57318   6956.05
 4.58254   6915.2
 4.5919   6860.78
 4.60126   6827
 4.61062   6825.31
 4.61998   6762.58
 4.62934   6750.55
 4.6387   6724.05
 4.64806   6700.1
 4.65742   6650.27
 4.66678   6660.94
 4.67614   6633.18
 4.6855   6612.67
 4.69486   6610.92
 4.70422   6612.03
 4.71358   6637.14
 4.72294   6688.51
 4.7323   6719.31
 4.74166   6770.84
 4.75102   6835.45
 4.76038   6900.65
 4.76974   7018.35
 4.7791   7205.44
 4.78846   7458.28
 4.79782   7803.23
 4.80718   8233.18
 4.81654   8704.38
 4.8259   9176.91
 4.83526   9510.47
 4.84462   9551.46
 4.85398   9199.7
 4.86334   8586.44
 4.8727   7962.09
 4.88206   7550
 4.89142   7344.89
 4.90078   7278.3
 4.91014   7370.68
 4.9195   7480.01
 4.92886   7646.11
 4.93822   7864.36
 4.94758   8162.34
 4.95694   8566.23
 4.9663   9084.51
 4.97566   9644.64
 4.98502   10151.4
 4.99438   10401.8
 5.00374   10285
 5.0131   9851.43
 5.02246   9143.42
 5.03182   8415.85
 5.04118   7804.95
 5.05054   7337.58
 5.0599   7019.03
 5.06926   6906.85
 5.07862   6934
 5.08798   7079.71
 5.09734   7272.81
 5.1067   8049.22
 5.11606   7874.14
 5.12542   8721.38
 5.13478   11257.6
 5.14414   13132.3
 5.1535   12044.6
 5.16286   9775.3
 5.17222   7758.15
 5.18158   6728.36
 5.19094   6746.38
 5.2003   6559.21
 5.20966   6344.58
 5.21902   6254.86
 5.22838   6128.66
 5.23774   6074.47
 5.2471   6022.8
 5.25646   5968.83
 5.26582   5924.8
 5.27518   5898.98
 5.28454   5891.44
 5.2939   5886.29
 5.30326   5868.06
 5.31262   5846.03
 5.32198   5853.26
 5.33134   5829.76
 5.3407   5815.05
 5.35006   5808.07
 5.35942   5813.54
 5.36878   5808.6
 5.37814   5806.07
 5.3875   5788.89
 5.39686   5810.07
 5.40622   5820.43
 5.41558   5820.25
 5.42494   5829.72
 5.4343   5845.88
 5.44366   5870.79
 5.45302   5890.68
 5.46238   5930.92
 5.47174   5983.95
 5.4811   6059.65
 5.49046   6135.44
 5.49982   6260.06
 5.50918   6485.64
 5.51854   6785.33
 5.5279   7222.12
 5.53726   7820.06
 5.54662   8507.02
 5.55598   9096.16
 5.56534   9430.03
 5.5747   9474.09
 5.58406   9270.49
 5.59342   8852.69
 5.60278   8418.72
 5.61214   7961.94
 5.6215   7579.81
 5.63086   7222.15
 5.64022   6952.7
 5.64958   6746.21
 5.65894   6554.63
 5.6683   6403.62
 5.67766   6303.7
 5.68702   6215.92
 5.69638   6134.88
 5.70574   6082.94
 5.7151   6048.02
 5.72446   6046.86
 5.73382   6040.15
 5.74318   6044.4
 5.75254   6087.91
 5.7619   6099.32
 5.77126   6106.43
 5.78062   6095.47
 5.78998   6067.58
 5.79934   6084.16
 5.8087   6086.52
 5.81806   6076.92
 5.82742   6130.04
 5.83678   6166.43
 5.84614   6215.13
 5.8555   6283.69
 5.86486   6386.54
 5.87422   6544.16
 5.88358   6734.15
 5.89294   6944.33
 5.9023   7253.7
 5.91166   7850.46
 5.92102   8598.49
 5.93038   9215.41
 5.93974   10418.5
 5.9491   10723.3
 5.95846   10403.6
 5.96782   10428.1
 5.97718   10256.9
 5.98654   9973.8
 5.9959   9568.04
 6.00526   9070.1
 6.01462   8545.88
 6.02398   8014.32
 6.03334   7513.97
 6.0427   7142.91
 6.05206   6840.19
 6.06142   6589.68
 6.07078   6399.1
 6.08014   6294.38
 6.0895   6214.53
 6.09886   6119.92
 6.10822   6037.22
 6.11758   6005.08
 6.12694   5986.03
 6.1363   5955.6
 6.14566   5920.43
 6.15502   5907.73
 6.16438   5910.75
 6.17374   5891.7
 6.1831   5887.02
 6.19246   5893.48
 6.20182   5905.7
 6.21118   5884.42
 6.22054   5882.01
 6.2299   5904.13
 6.23926   5889
 6.24862   5884.21
 6.25798   5904.57
 6.26734   5902.11
 6.2767   5919.05
 6.28606   5893.76
 6.29542   5913.86
 6.30478   5930.93
 6.31414   5929.81
 6.3235   5917.57
 6.33286   5932.91
 6.34222   5946.87
 6.35158   5949.95
 6.36094   5930.93
 6.3703   5952.9
 6.37966   5948.75
 6.38902   5977.58
 6.39838   5972.42
 6.40774   6005.83
 6.4171   6029.27
 6.42646   6033.05
 6.43582   6056.96
 6.44518   6091.1
 6.45454   6076.46
 6.4639   6081.57
 6.47326   6058.61
 6.48262   6045.26
 6.49198   6040.65
 6.50134   6009.1
 6.5107   6058.62
 6.52006   6088.61
 6.52942   6070.63
 6.53878   6094.8
 6.54814   6127.41
 6.5575   6140.18
 6.56686   6157.44
 6.57622   6157.85
 6.58558   6193.11
 6.59494   6220.48
 6.6043   6234.08
 6.61366   6234.24
 6.62302   6233.81
 6.63238   6282.79
 6.64174   6281.02
 6.6511   6319.67
 6.66046   6369.49
 6.66982   6351.16
 6.67918   6373.34
 6.68854   6371.72
 6.6979   6392.25
 6.70726   6458.24
 6.71662   6468.1
 6.72598   6499.3
 6.73534   6570.47
 6.7447   6596.13
 6.75406   6629.79
 6.76342   6644.66
 6.77278   6704.85
 6.78214   6692.41
 6.7915   6711.74
 6.80086   6707.52
 6.81022   6735.76
 6.81958   6800.56
 6.82894   6802.72
 6.8383   6842.82
 6.84766   6935.65
 6.85702   6960.48
 6.86638   7036.45
 6.87574   7169.54
 6.8851   7306.55
 6.89446   7469.8
 6.90382   7666.7
 6.91318   7873.82
 6.92254   8104.45
 6.9319   8236.32
 6.94126   8302.62
 6.95062   8365.58
 6.95998   8354.99
 6.96934   8188.67
 6.9787   8132.97
 6.98806   8044.68
 6.99742   7923.24
 7.00678   7828.13
 7.01614   7733.72
 7.0255   7662.15
 7.03486   7585.36
 7.04422   7533.84
 7.05358   7482.01
 7.06294   7481.38
 7.0723   7400.51
 7.08166   7229.95
 7.09102   7070.3
 7.10038   6989.69
 7.10974   6888.51
 7.1191   6842.58
 7.12846   6796.28
 7.13782   6784.78
 7.14718   6754.81
 7.15654   6727.66
 7.1659   6709.12
 7.17526   6716.31
 7.18462   6694.46
 7.19398   6682.72
 7.20334   6662.27
 7.2127   6677.87
 7.22206   6644.57
 7.23142   6646.66
 7.24078   6664.81
 7.25014   6663.41
 7.2595   6678.73
 7.26886   6673.96
 7.27822   6692.46
 7.28758   6697.79
 7.29694   6670.38
 7.3063   6677.36
 7.31566   6694.66
 7.32502   6730.16
 7.33438   6752.27
 7.34374   6803.49
 7.3531   6830.56
 7.36246   6853.32
 7.37182   6889.11
 7.38118   6909.7
 7.39054   6934.41
 7.3999   6991.33
 7.40926   7037.95
 7.41862   7104.85
 7.42798   7191.18
 7.43734   7272.12
 7.4467   7332.01
 7.45606   7415.79
 7.46542   7442.96
 7.47478   7455.45
 7.48414   7418.88
 7.4935   7362.26
 7.50286   7316.57
 7.51222   7250.22
 7.52158   7180.99
 7.53094   7110.95
 7.5403   7080.34
 7.54966   7037.82
 7.55902   6981.38
 7.56838   6953.27
 7.57774   6914.84
 7.5871   6865.12
 7.59646   6837.06
 7.60582   6752.32
 7.61518   6692.46
 7.62454   6574.49
 7.6339   6490.14
 7.64326   6384.96
 7.65262   6316.13
 7.66198   6260.02
 7.67134   6216.92
 7.6807   6180.52
 7.69006   6141.28
 7.69942   6106.83
 7.70878   6076.29
 7.71814   6032.52
 7.7275   6014.33
 7.73686   5998.6
 7.74622   5985.57
 7.75558   5932.45
 7.76494   5922.01
 7.7743   5913.97
 7.78366   5882.63
 7.79302   5863.83
 7.80238   5829.65
 7.81174   5824.92
 7.8211   5808.66
 7.83046   5774.31
 7.83982   5759.14
 7.84918   5770.25
 7.85854   5734.04
 7.8679   5707.31
 7.87726   5714.46
 7.88662   5705.73
 7.89598   5683.49
 7.90534   5664.95
 7.9147   5646.14
 7.92406   5640.1
 7.93342   5635.48
 7.94278   5600.52
 7.95214   5606.02
 7.9615   5608.86
 7.97086   5580.63
 7.98022   5553.97
 7.98958   5579.63
 7.99894   5567.49
 8.0083   5545.79
 8.01766   5527.11
 8.02702   5524.18
 8.03638   5525.17
 8.04574   5502.63
 8.0551   5498.91
 8.06446   5519.32
 8.07382   5564.43
 8.08318   5561.45
 8.09254   5570.59
 8.1019   5637.66
 8.11126   5658.59
 8.12062   5668.66
 8.12998   5694.75
 8.13934   5686.46
 8.1487   5727.49
 8.15806   5714.65
 8.16742   5725.93
 8.17678   5764.98
 8.18614   5837.63
 8.1955   5878.66
 8.20486   5993.57
 8.21422   6134.21
 8.22358   6312.22
 8.23294   6481.27
 8.2423   6664.93
 8.25166   6884.39
 8.26102   7079.11
 8.27038   7290.45
 8.27974   7494.85
 8.2891   7621.98
 8.29846   7658.34
 8.30782   7558.94
 8.31718   7335.89
 8.32654   6999.93
 8.3359   6682.17
 8.34526   6360.63
 8.35462   6127.8
 8.36398   6000.63
 8.37334   6061.94
 8.3827   6320.49
 8.39206   6401.78
 8.40142   6903.15
 8.41078   7057.87
 8.42014   6809.62
 8.4295   6234.26
 8.43886   6103.55
 8.44822   5832.71
 8.45758   5744.29
 8.46694   5756.42
 8.4763   5798.36
 8.48566   5857.3
 8.49502   5957.64
 8.50438   6075.67
 8.51374   6202.73
 8.5231   6359.96
 8.53246   6531.57
 8.54182   6706.6
 8.55118   6898.13
 8.56054   7053.3
 8.5699   7169.59
 8.57926   7258.51
 8.58862   7253.38
 8.59798   7175.77
 8.60734   7044.24
 8.6167   6866.5
 8.62606   6643.43
 8.63542   6463.33
 8.64478   6289.34
 8.65414   6105.61
 8.6635   5963.12
 8.67286   5833.37
 8.68222   5710.26
 8.69158   5630.11
 8.70094   5556.14
 8.7103   5493.49
 8.71966   5444.23
 8.72902   5399.53
 8.73838   5362.67
 8.74774   5311.98
 8.7571   5291.3
 8.76646   5270.9
 8.77582   5242.71
 8.78518   5217.73
 8.79454   5199.56
 8.8039   5191.77
 8.81326   5186.06
 8.82262   5152.45
 8.83198   5127.08
 8.84134   5108.11
 8.8507   5075.87
 8.86006   5053.76
 8.86942   5032.65
 8.87878   5009.71
 8.88814   4983.7
 8.8975   4978.11
 8.90686   4968.95
 8.91622   4972.35
 8.92558   4971.18
 8.93494   4959.74
 8.9443   4958.64
 8.95366   4975.4
 8.96302   4955.31
 8.97238   4964.68
 8.98174   4963.65
 8.9911   4965.45
 9.00046   4954.71
 9.00982   4946.41
 9.01918   4942
 9.02854   4928.55
 9.0379   4930
 9.04726   4923.7
 9.05662   4911.38
 9.06598   4911.33
 9.07534   4913.01
 9.0847   4911.45
 9.09406   4913.09
 9.10342   4929.37
 9.11278   4941.41
 9.12214   4960.81
 9.1315   4973.34
 9.14086   4985.15
 9.15022   5000.3
 9.15958   5030.2
 9.16894   5052.19
 9.1783   5072.05
 9.18766   5098.43
 9.19702   5129.22
 9.20638   5165.03
 9.21574   5206.39
 9.2251   5223.1
 9.23446   5244.53
 9.24382   5283.02
 9.25318   5317.27
 9.26254   5351.71
 9.2719   5396.82
 9.28126   5445.02
 9.29062   5503.86
 9.29998   5527.37
 9.30934   5585.33
 9.3187   5626.08
 9.32806   5667.34
 9.33742   5687.78
 9.34678   5679
 9.35614   5664.54
 9.3655   5644.62
 9.37486   5582.92
 9.38422   5496.13
 9.39358   5427.97
 9.40294   5355.89
 9.4123   5293.69
 9.42166   5234.24
 9.43102   5193.35
 9.44038   5155.02
 9.44974   5135.07
 9.4591   5106.02
 9.46846   5097.52
 9.47782   5110.14
 9.48718   5111.38
 9.49654   5110.52
 9.5059   5118.65
 9.51526   5133.36
 9.52462   5131.88
 9.53398   5142.3
 9.54334   5139.87
 9.5527   5176.54
 9.56206   5191.91
 9.57142   5203.13
 9.58078   5230.72
 9.59014   5274.99
 9.5995   5309.38
 9.60886   5331.56
 9.61822   5352.16
 9.62758   5364.7
 9.63694   5362.49
 9.6463   5369.77
 9.65566   5389.44
 9.66502   5415.38
 9.67438   5432.1
 9.68374   5455.54
 9.6931   5457.61
 9.70246   5453.1
 9.71182   5407.79
 9.72118   5344.55
 9.73054   5271.57
 9.7399   5213.19
 9.74926   5173.44
 9.75862   5131.39
 9.76798   5110.28
 9.77734   5138.52
 9.7867   5150.59
 9.79606   5165.48
 9.80542   5225.63
 9.81478   5357.37
 9.82414   5594.12
 9.8335   6273.11
 9.84286   7449.59
 9.85222   8842.36
 9.86158   10862.3
 9.87094   10294.2
 9.8803   8336.05
 9.88966   6719.32
 9.89902   6027.01
 9.90838   5579.17
 9.91774   5423.81
 9.9271   5351.6
 9.93646   5331.57
 9.94582   5336.28
 9.95518   5318.33
 9.96454   5340.9
 9.9739   5332.55
 9.98326   5340.19
 9.99262   5345.73
 10.002   5346.71
 10.0113   5327.84
 10.0207   5316.94
 10.0301   5290.13
 10.0394   5265.51
 10.0488   5253.73
 10.0581   5222.51
 10.0675   5222.87
 10.0769   5205.26
 10.0862   5191.94
 10.0956   5189.35
 10.1049   5193.67
 10.1143   5185.4
 10.1237   5191.18
 10.133   5207.13
 10.1424   5218.2
 10.1517   5244.39
 10.1611   5258.55
 10.1705   5309.15
 10.1798   5349.54
 10.1892   5384.75
 10.1985   5461.1
 10.2079   5520.89
 10.2173   5585.69
 10.2266   5613.77
 10.236   5683.36
 10.2453   5700.53
 10.2547   5735.57
 10.2641   5806.61
 10.2734   5931.04
 10.2828   5771.65
 10.2921   5987.41
 10.3015   6068.2
 10.3109   5949.85
 10.3202   5755.55
 10.3296   5946.82
 10.3389   5488.38
 10.3483   5327.03
 10.3577   5257.07
 10.367   5219.81
 10.3764   5203.29
 10.3857   5218.23
 10.3951   5207.17
 10.4045   5217.31
 10.4138   5225.6
 10.4232   5252.62
 10.4325   5270.13
 10.4419   5307.94
 10.4513   5338.28
 10.4606   5362.81
 10.47   5403.49
 10.4793   5424.77
 10.4887   5419.29
 10.4981   5429.24
 10.5074   5421.79
 10.5168   5385.81
 10.5261   5355.95
 10.5355   5352.92
 10.5449   5311.59
 10.5542   5263.49
 10.5636   5230.16
 10.5729   5196.59
 10.5823   5162.19
 10.5917   5138.46
 10.601   5116.48
 10.6104   5099.05
 10.6197   5075.21
 10.6291   5064.32
 10.6385   5047.18
 10.6478   5038.24
 10.6572   5034.49
 10.6665   5020.73
 10.6759   5026.67
 10.6853   5019.4
 10.6946   5029.08
 10.704   5037.91
 10.7133   5052.94
 10.7227   5062.08
 10.7321   5097.37
 10.7414   5110.53
 10.7508   5135.76
 10.7601   5130.47
 10.7695   5147.4
 10.7789   5153.24
 10.7882   5142.18
 10.7976   5133.01
 10.8069   5113.44
 10.8163   5113.77
 10.8257   5112.25
 10.835   5090.71
 10.8444   5078.85
 10.8537   5060.36
 10.8631   5046.19
 10.8725   5023.22
 10.8818   4998.24
 10.8912   4961.5
 10.9005   4949.35
 10.9099   4922.74
 10.9193   4895.02
 10.9286   4878.82
 10.938   4866.67
 10.9473   4847.16
 10.9567   4831.81
 10.9661   4811.75
 10.9754   4801.06
 10.9848   4790.82
 10.9941   4786.89
 11.0035   4772.34
 11.0129   4796.63
 11.0222   4786.34
 11.0316   4775.2
 11.0409   4788.41
 11.0503   4792.24
 11.0597   4806.51
 11.069   4794.74
 11.0784   4803.49
 11.0877   4817.33
 11.0971   4845.02
 11.1065   4867.07
 11.1158   4883.11
 11.1252   4908.26
 11.1345   4940.01
 11.1439   4959.96
 11.1533   4962.04
 11.1626   4957.56
 11.172   4943.85
 11.1813   4940.56
 11.1907   4921.16
 11.2001   4893.59
 11.2094   4886.97
 11.2188   4858.61
 11.2281   4834.44
 11.2375   4799.53
 11.2469   4779.65
 11.2562   4749.3
 11.2656   4723.43
 11.2749   4687.02
 11.2843   4665.33
 11.2937   4649.09
 11.303   4628.61
 11.3124   4607.22
 11.3217   4594.46
 11.3311   4591.95
 11.3405   4577
 11.3498   4553.22
 11.3592   4545.51
 11.3685   4535.91
 11.3779   4531.57
 11.3873   4526.24
 11.3966   4511.51
 11.406   4520.6
 11.4153   4503.39
 11.4247   4496.24
 11.4341   4479.13
 11.4434   4476.16
 11.4528   4484.32
 11.4621   4470.97
 11.4715   4468.64
 11.4809   4469.7
 11.4902   4465.92
 11.4996   4458.58
 11.5089   4456.7
 11.5183   4446.81
 11.5277   4447.55
 11.537   4435.94
 11.5464   4420.31
 11.5557   4414.13
 11.5651   4413.11
 11.5745   4419.17
 11.5838   4404.3
 11.5932   4408.34
 11.6025   4402.03
 11.6119   4401.32
 11.6213   4390.81
 11.6306   4388.8
 11.64   4386.41
 11.6493   4392.48
 11.6587   4385.64
 11.6681   4372.18
 11.6774   4358.44
 11.6868   4356.18
 11.6961   4360.83
 11.7055   4350.71
 11.7149   4344.02
 11.7242   4343.3
 11.7336   4351.27
 11.7429   4338.91
 11.7523   4332.92
 11.7617   4338.23
 11.771   4345.46
 11.7804   4340.95
 11.7897   4333.93
 11.7991   4334.91
 11.8085   4348
 11.8178   4358.15
 11.8272   4354.52
 11.8365   4368.65
 11.8459   4399.35
 11.8553   4420.73
 11.8646   4443.35
 11.874   4499.22
 11.8833   4545.09
 11.8927   4612.92
 11.9021   4683.95
 11.9114   4696.79
 11.9208   4676.11
 11.9301   4650.83
 11.9395   4647.47
 11.9489   4612.07
 11.9582   4616.44
 11.9676   4626.82
 11.9769   4621.15
 11.9863   4606.29
 11.9957   4600.82
 12.005   4583.3
 12.0144   4557.25
 12.0237   4538.62
 12.0331   4504.18
 12.0425   4486.13
 12.0518   4446.91
 12.0612   4430.46
 12.0705   4408.76
 12.0799   4388.68
 12.0893   4369.3
 12.0986   4345.71
 12.108   4328.98
 12.1173   4311.67
 12.1267   4288.38
 12.1361   4263
 12.1454   4234.99
 12.1548   4215.06
 12.1641   4195.71
 12.1735   4180.05
 12.1829   4166.39
 12.1922   4145.04
 12.2016   4137
 12.2109   4128.38
 12.2203   4127.82
 12.2297   4115.96
 12.239   4102.3
 12.2484   4100.75
 12.2577   4086.77
 12.2671   4093.55
 12.2765   4095.75
 12.2858   4085.97
 12.2952   4082.73
 12.3045   4081.52
 12.3139   4084.93
 12.3233   4088.84
 12.3326   4077.05
 12.342   4091.37
 12.3513   4087.75
 12.3607   4097.82
 12.3701   4114.91
 12.3794   4113.84
 12.3888   4120.5
 12.3981   4131.96
 12.4075   4142.83
 12.4169   4142.51
 12.4262   4139.6
 12.4356   4132.95
 12.4449   4129.53
 12.4543   4139.01
 12.4637   4124.37
 12.473   4123.58
 12.4824   4125.57
 12.4917   4110.98
 12.5011   4096.3
 12.5105   4096.16
 12.5198   4087.24
 12.5292   4076.76
 12.5385   4081.64
 12.5479   4063.14
 12.5573   4060.03
 12.5666   4057.72
 12.576   4061.91
 12.5853   4064.1
 12.5947   4072.75
 12.6041   4082.2
 12.6134   4089.84
 12.6228   4098.5
 12.6321   4119.46
 12.6415   4126.18
 12.6509   4139.97
 12.6602   4162.38
 12.6696   4177.33
 12.6789   4193.84
 12.6883   4215.12
 12.6977   4226.65