File: docs/GuiliangJun25_tutorial_output/integrals/MA2b-00002_om.chi
MA2b-00002.tif Azm= 0.00
2-Theta Angle (Degrees)
Intensity
       2500
 1.00702   7895.89
 1.01638   7821.77
 1.02574   7766.59
 1.0351   7738.86
 1.04446   7673.27
 1.05382   7642.52
 1.06318   7574.36
 1.07254   7523.6
 1.0819   7520.82
 1.09126   7466.58
 1.10062   7430.56
 1.10998   7367.41
 1.11934   7309.18
 1.1287   7307.71
 1.13806   7263.54
 1.14742   7231.82
 1.15678   7224.66
 1.16614   7218.58
 1.1755   7190.5
 1.18486   7167.34
 1.19422   7153.61
 1.20358   7125.92
 1.21294   7135.23
 1.2223   7130.54
 1.23166   7091.2
 1.24102   7084
 1.25038   7086.71
 1.25974   7101.33
 1.2691   7089.85
 1.27846   7083.49
 1.28782   7101.82
 1.29718   7086.24
 1.30654   7102.51
 1.3159   7107.44
 1.32526   7100.73
 1.33462   7142.89
 1.34398   7145.12
 1.35334   7133.61
 1.3627   7140.27
 1.37206   7177.69
 1.38142   7184.13
 1.39078   7225.33
 1.40014   7225.46
 1.4095   7238.27
 1.41886   7281.4
 1.42822   7329.6
 1.43758   7374.95
 1.44694   7414.02
 1.4563   7475.36
 1.46566   7542.08
 1.47502   7594.3
 1.48438   7624.15
 1.49374   7669.26
 1.5031   7710.23
 1.51246   7748.89
 1.52182   7758.66
 1.53118   7767.86
 1.54054   7739.05
 1.5499   7710.61
 1.55926   7718.89
 1.56862   7685.66
 1.57798   7700.87
 1.58734   7688.83
 1.5967   7681.18
 1.60606   7681.36
 1.61542   7681.03
 1.62478   7660.54
 1.63414   7673.98
 1.6435   7663.26
 1.65286   7672.59
 1.66222   7668.19
 1.67158   7678.98
 1.68094   7685.93
 1.6903   7668.91
 1.69966   7677.91
 1.70902   7703.99
 1.71838   7728.74
 1.72774   7696.17
 1.7371   7705.14
 1.74646   7696.6
 1.75582   7719.52
 1.76518   7740.81
 1.77454   7754.62
 1.7839   7794.93
 1.79326   7818.22
 1.80262   7836.99
 1.81198   7895.22
 1.82134   7931.85
 1.8307   7954.11
 1.84006   7986.96
 1.84942   8002.71
 1.85878   8077.34
 1.86814   8094.81
 1.8775   8134.86
 1.88686   8165.91
 1.89622   8192.4
 1.90558   8246.97
 1.91494   8301.45
 1.9243   8368.9
 1.93366   8426.08
 1.94302   8456.51
 1.95238   8500.95
 1.96174   8542.89
 1.9711   8586.33
 1.98046   8640.22
 1.98982   8695.58
 1.99918   8719.69
 2.00854   8774.09
 2.0179   8853.92
 2.02726   8893.6
 2.03662   8952.65
 2.04598   8989.25
 2.05534   9062
 2.0647   9128.45
 2.07406   9210.12
 2.08342   9334.58
 2.09278   9507.41
 2.10214   9761.11
 2.1115   10215.8
 2.12086   11058.8
 2.13022   12770.1
 2.13958   15497.7
 2.14894   18954.4
 2.1583   21949.1
 2.16766   23966.9
 2.17702   24541.9
 2.18638   23522.9
 2.19574   21371.2
 2.2051   18817.7
 2.21446   16752.7
 2.22382   15338
 2.23318   14454.5
 2.24254   13669.5
 2.2519   12831.1
 2.26126   11892.9
 2.27062   11195.5
 2.27998   10783.7
 2.28934   10566.6
 2.2987   10505.7
 2.30806   10490.9
 2.31742   10506
 2.32678   10546
 2.33614   10584.3
 2.3455   10642.4
 2.35486   10692.3
 2.36422   10735.1
 2.37358   10795.8
 2.38294   10861.1
 2.3923   10927.7
 2.40166   10996.6
 2.41102   11062.2
 2.42038   11150.2
 2.42974   11216.4
 2.4391   11282.2
 2.44846   11346.3
 2.45782   11420.2
 2.46718   11478.9
 2.47654   11576.6
 2.4859   11649.5
 2.49526   11716.6
 2.50462   11790.2
 2.51398   11857.6
 2.52334   11959.3
 2.5327   11997.9
 2.54206   12068.2
 2.55142   12139.9
 2.56078   12202.4
 2.57014   12292.6
 2.5795   12341.7
 2.58886   12405.4
 2.59822   12451.1
 2.60758   12470
 2.61694   12552.2
 2.6263   12595
 2.63566   12638
 2.64502   12650.1
 2.65438   12699.7
 2.66374   12740.9
 2.6731   12719.2
 2.68246   12739.5
 2.69182   12795.5
 2.70118   12787.7
 2.71054   12808.9
 2.7199   12828.9
 2.72926   12835.8
 2.73862   12831.3
 2.74798   12844.5
 2.75734   12810.1
 2.7667   12809.4
 2.77606   12799.2
 2.78542   12760.2
 2.79478   12737.7
 2.80414   12724.1
 2.8135   12710
 2.82286   12661.7
 2.83222   12640.1
 2.84158   12598.2
 2.85094   12569.3
 2.8603   12549.9
 2.86966   12509.1
 2.87902   12495
 2.88838   12447.6
 2.89774   12404.2
 2.9071   12401.4
 2.91646   12350.6
 2.92582   12321
 2.93518   12277.8
 2.94454   12238.9
 2.9539   12204.2
 2.96326   12149.6
 2.97262   12094.5
 2.98198   12053.7
 2.99134   11995
 3.0007   11930.4
 3.01006   11897.9
 3.01942   11860
 3.02878   11811.3
 3.03814   11747.5
 3.0475   11693.7
 3.05686   11641.3
 3.06622   11555.5
 3.07558   11521.6
 3.08494   11481.9
 3.0943   11420.9
 3.10366   11368.7
 3.11302   11330
 3.12238   11299.8
 3.13174   11257.3
 3.1411   11215.5
 3.15046   11156.4
 3.15982   11140.9
 3.16918   11094.8
 3.17854   11049.6
 3.1879   11044.6
 3.19726   11022
 3.20662   11002.7
 3.21598   10944.3
 3.22534   10936.3
 3.2347   10894.2
 3.24406   10854.5
 3.25342   10839.6
 3.26278   10818.1
 3.27214   10797.1
 3.2815   10755.6
 3.29086   10735.8
 3.30022   10739.7
 3.30958   10734.1
 3.31894   10695.9
 3.3283   10705.8
 3.33766   10700.3
 3.34702   10690.5
 3.35638   10675.4
 3.36574   10703.8
 3.3751   10687.2
 3.38446   10670.4
 3.39382   10678.9
 3.40318   10686.6
 3.41254   10684.7
 3.4219   10671.5
 3.43126   10687
 3.44062   10713.7
 3.44998   10722.4
 3.45934   10698.3
 3.4687   10716.4
 3.47806   10733.2
 3.48742   10703.4
 3.49678   10681.2
 3.50614   10713.5
 3.5155   10740
 3.52486   10680.1
 3.53422   10678.3
 3.54358   10697.5
 3.55294   10708.5
 3.5623   10657.8
 3.57166   10676.4
 3.58102   10713.4
 3.59038   10702.3
 3.59974   10664.7
 3.6091   10694.9
 3.61846   10701.2
 3.62782   10653.9
 3.63718   10608.4
 3.64654   10657.6
 3.6559   10685.2
 3.66526   10589.6
 3.67462   10504.4
 3.68398   10550.3
 3.69334   10530.1
 3.7027   10391.4
 3.71206   10360.7
 3.72142   10336.6
 3.73078   10266.4
 3.74014   10091.4
 3.7495   10088.4
 3.75886   10035.9
 3.76822   9966.66
 3.77758   9828.36
 3.78694   9840.27
 3.7963   9782.75
 3.80566   9604.26
 3.81502   9542.01
 3.82438   9568.66
 3.83374   9521.92
 3.8431   9317.24
 3.85246   9343.28
 3.86182   9291.56
 3.87118   9272.61
 3.88054   9146.96
 3.8899   9115.16
 3.89926   9107.22
 3.90862   8977.75
 3.91798   8896.12
 3.92734   8939.95
 3.9367   8829.61
 3.94606   8758.99
 3.95542   8770.97
 3.96478   8655.64
 3.97414   8595.31
 3.9835   8571.85
 3.99286   8507.98
 4.00222   8500.9
 4.01158   8463.92
 4.02094   8338.23
 4.0303   8382.86
 4.03966   8392.01
 4.04902   8294.56
 4.05838   8257.44
 4.06774   8238.74
 4.0771   8182.63
 4.08646   8139.24
 4.09582   8085.73
 4.10518   8082.38
 4.11454   8127.77
 4.1239   7968.38
 4.13326   7976.73
 4.14262   7985.39
 4.15198   7943.06
 4.16134   7858.94
 4.1707   7863.7
 4.18006   7884.86
 4.18942   7888.46
 4.19878   7815.54
 4.20814   7800.14
 4.2175   7915.81
 4.22686   7817.93
 4.23622   7735.16
 4.24558   7853.02
 4.25494   7880.08
 4.2643   7940.14
 4.27366   8029.07
 4.28302   8193.19
 4.29238   8363.56
 4.30174   8505.02
 4.3111   8574.78
 4.32046   8692.81
 4.32982   8783.08
 4.33918   8843.76
 4.34854   8968.76
 4.3579   9007.91
 4.36726   8903.92
 4.37662   8768.52
 4.38598   8606.19
 4.39534   8453.01
 4.4047   8295.52
 4.41406   8102.31
 4.42342   7973.74
 4.43278   7953.94
 4.44214   7836.32
 4.4515   7738.43
 4.46086   7718.55
 4.47022   7684.06
 4.47958   7627.33
 4.48894   7586.73
 4.4983   7521.65
 4.50766   7393.23
 4.51702   7232.7
 4.52638   7151.36
 4.53574   7099.19
 4.5451   7017.84
 4.55446   6967.31
 4.56382   6914.04
 4.57318   6895.26
 4.58254   6859.02
 4.5919   6822.21
 4.60126   6775.6
 4.61062   6786.84
 4.61998   6728.63
 4.62934   6703.26
 4.6387   6686.72
 4.64806   6650.17
 4.65742   6611.62
 4.66678   6602.29
 4.67614   6588.13
 4.6855   6576.93
 4.69486   6590.1
 4.70422   6610.17
 4.71358   6699.82
 4.72294   6833.48
 4.7323   6964.25
 4.74166   7107.92
 4.75102   7272.35
 4.76038   7422.15
 4.76974   7681.6
 4.7791   8073.81
 4.78846   8552.1
 4.79782   9000.16
 4.80718   9315.67
 4.81654   9325.37
 4.8259   9083.04
 4.83526   8651.88
 4.84462   8162.46
 4.85398   7703.24
 4.86334   7328.58
 4.8727   7115.41
 4.88206   7103.53
 4.89142   7221.01
 4.90078   7508.84
 4.91014   7846.72
 4.9195   8111.36
 4.92886   8312.34
 4.93822   8385.52
 4.94758   8450.24
 4.95694   8456.95
 4.9663   8438.22
 4.97566   8414.42
 4.98502   8354.68
 4.99438   8206.7
 5.00374   7937.74
 5.0131   7630.09
 5.02246   7295.96
 5.03182   6959.63
 5.04118   6714.04
 5.05054   6554.16
 5.0599   6468.7
 5.06926   6475.53
 5.07862   6571.82
 5.08798   6816.44
 5.09734   7047.7
 5.1067   7823.61
 5.11606   7717.09
 5.12542   8572.75
 5.13478   11162
 5.14414   12977.6
 5.1535   11900.9
 5.16286   9703.92
 5.17222   7644.93
 5.18158   6634
 5.19094   6645.07
 5.2003   6455.9
 5.20966   6249.06
 5.21902   6174.56
 5.22838   6072.04
 5.23774   5998.48
 5.2471   5962.02
 5.25646   5911.47
 5.26582   5873.54
 5.27518   5847.62
 5.28454   5842.65
 5.2939   5838.43
 5.30326   5809.02
 5.31262   5816.02
 5.32198   5818.57
 5.33134   5801.07
 5.3407   5801.75
 5.35006   5809.81
 5.35942   5795.31
 5.36878   5799.7
 5.37814   5807.78
 5.3875   5795.85
 5.39686   5827.99
 5.40622   5857.51
 5.41558   5855
 5.42494   5891.16
 5.4343   5946.47
 5.44366   5984.85
 5.45302   6034.68
 5.46238   6125.81
 5.47174   6256.05
 5.4811   6446.33
 5.49046   6688.93
 5.49982   7051.1
 5.50918   7657.46
 5.51854   8554.98
 5.5279   9755.33
 5.53726   11324.6
 5.54662   13059.3
 5.55598   14379.5
 5.56534   14892.9
 5.5747   14537.7
 5.58406   13576.9
 5.59342   12346.7
 5.60278   11140.5
 5.61214   10124.7
 5.6215   9313.86
 5.63086   8640.5
 5.64022   8094.28
 5.64958   7636.49
 5.65894   7231.08
 5.6683   6889.87
 5.67766   6603.53
 5.68702   6410.09
 5.69638   6261.02
 5.70574   6126.35
 5.7151   6078.02
 5.72446   6018.4
 5.73382   5972.45
 5.74318   5970.73
 5.75254   5973.28
 5.7619   5979.24
 5.77126   5946.78
 5.78062   5930.99
 5.78998   5892.97
 5.79934   5890.32
 5.8087   5875.18
 5.81806   5849.72
 5.82742   5850.66
 5.83678   5873.04
 5.84614   5899.29
 5.8555   5911.23
 5.86486   5977.35
 5.87422   6035.06
 5.88358   6125.87
 5.89294   6230.87
 5.9023   6392.51
 5.91166   6778.95
 5.92102   7185.33
 5.93038   7513.88
 5.93974   8299.74
 5.9491   8293.45
 5.95846   7744.72
 5.96782   7569.07
 5.97718   7356.34
 5.98654   7182.48
 5.9959   7054.45
 6.00526   6896.6
 6.01462   6753.58
 6.02398   6592.49
 6.03334   6430.81
 6.0427   6276.39
 6.05206   6183.91
 6.06142   6094.04
 6.07078   5992.76
 6.08014   5949.01
 6.0895   5921.9
 6.09886   5872.17
 6.10822   5838.91
 6.11758   5823.54
 6.12694   5818.2
 6.1363   5804.99
 6.14566   5787.87
 6.15502   5786.05
 6.16438   5798.19
 6.17374   5786.12
 6.1831   5781.26
 6.19246   5801.64
 6.20182   5822.47
 6.21118   5795.49
 6.22054   5784.88
 6.2299   5820
 6.23926   5829.72
 6.24862   5821.88
 6.25798   5828.33
 6.26734   5824.79
 6.2767   5860.65
 6.28606   5836.47
 6.29542   5851.12
 6.30478   5858.9
 6.31414   5867.5
 6.3235   5856.46
 6.33286   5877.51
 6.34222   5880.46
 6.35158   5884.46
 6.36094   5877.77
 6.3703   5884.09
 6.37966   5895.4
 6.38902   5904.77
 6.39838   5899.77
 6.40774   5918.9
 6.4171   5947.16
 6.42646   5940.71
 6.43582   5956.02
 6.44518   5986.03
 6.45454   5954.02
 6.4639   5979.59
 6.47326   5966.14
 6.48262   5977
 6.49198   5991.05
 6.50134   5977.99
 6.5107   5995.12
 6.52006   6043.55
 6.52942   6026.93
 6.53878   6057.47
 6.54814   6086.22
 6.5575   6102.66
 6.56686   6108
 6.57622   6107.13
 6.58558   6147.87
 6.59494   6180.65
 6.6043   6188.93
 6.61366   6196.78
 6.62302   6200.4
 6.63238   6247.79
 6.64174   6225.94
 6.6511   6247.44
 6.66046   6296.65
 6.66982   6301.14
 6.67918   6317.81
 6.68854   6324.98
 6.6979   6343.52
 6.70726   6423.19
 6.71662   6427.43
 6.72598   6440.34
 6.73534   6525.38
 6.7447   6552.67
 6.75406   6568.58
 6.76342   6582.45
 6.77278   6656.53
 6.78214   6652.76
 6.7915   6664.31
 6.80086   6643.87
 6.81022   6675.69
 6.81958   6697.24
 6.82894   6703.8
 6.8383   6757.15
 6.84766   6871.56
 6.85702   6855.6
 6.86638   6929.57
 6.87574   7052.85
 6.8851   7122.65
 6.89446   7222.88
 6.90382   7372.39
 6.91318   7485.81
 6.92254   7653.58
 6.9319   7761.41
 6.94126   7833.48
 6.95062   7933.47
 6.95998   8034.7
 6.96934   7988.82
 6.9787   8069.97
 6.98806   8135.64
 6.99742   8144.26
 7.00678   8163.94
 7.01614   8118.09
 7.0255   8092.26
 7.03486   7981.62
 7.04422   7864.48
 7.05358   7730.68
 7.06294   7656.41
 7.0723   7491.48
 7.08166   7287.88
 7.09102   7090.5
 7.10038   6970.3
 7.10974   6854.08
 7.1191   6812.43
 7.12846   6748.74
 7.13782   6704.9
 7.14718   6691.29
 7.15654   6676.08
 7.1659   6637.92
 7.17526   6668.68
 7.18462   6634.97
 7.19398   6611.35
 7.20334   6601.97
 7.2127   6611.71
 7.22206   6576.29
 7.23142   6577.52
 7.24078   6586.09
 7.25014   6603.14
 7.2595   6597.02
 7.26886   6603.44
 7.27822   6608.09
 7.28758   6614.06
 7.29694   6587.45
 7.3063   6624.33
 7.31566   6654.03
 7.32502   6674.51
 7.33438   6700.54
 7.34374   6753.78
 7.3531   6791.26
 7.36246   6831.61
 7.37182   6850.37
 7.38118   6867.84
 7.39054   6860.63
 7.3999   6894.32
 7.40926   6887.69
 7.41862   6902.88
 7.42798   6938
 7.43734   6964.82
 7.4467   6985.23
 7.45606   7037.55
 7.46542   7077.44
 7.47478   7125.1
 7.48414   7166.65
 7.4935   7224.05
 7.50286   7286.37
 7.51222   7372.65
 7.52158   7443.29
 7.53094   7520.63
 7.5403   7618.41
 7.54966   7667.57
 7.55902   7703.59
 7.56838   7724.7
 7.57774   7731.28
 7.5871   7692.32
 7.59646   7627.91
 7.60582   7497.46
 7.61518   7320.7
 7.62454   7075.21
 7.6339   6856.82
 7.64326   6633.68
 7.65262   6494.81
 7.66198   6382.39
 7.67134   6295.83
 7.6807   6240.45
 7.69006   6162.11
 7.69942   6127.57
 7.70878   6094.02
 7.71814   6060.36
 7.7275   6032.27
 7.73686   6007.18
 7.74622   5971.78
 7.75558   5931.51
 7.76494   5913.43
 7.7743   5910.94
 7.78366   5883.59
 7.79302   5859.13
 7.80238   5837.05
 7.81174   5828.83
 7.8211   5800.03
 7.83046   5766.52
 7.83982   5770.2
 7.84918   5764.98
 7.85854   5723.45
 7.8679   5688.36
 7.87726   5704.42
 7.88662   5688.81
 7.89598   5669.6
 7.90534   5639.38
 7.9147   5640.48
 7.92406   5631.69
 7.93342   5616.41
 7.94278   5579.95
 7.95214   5582.12
 7.9615   5604.52
 7.97086   5575.32
 7.98022   5547.94
 7.98958   5544.85
 7.99894   5550.68
 8.0083   5527.93
 8.01766   5517.72
 8.02702   5508.99
 8.03638   5537.74
 8.04574   5522.75
 8.0551   5529.46
 8.06446   5586.27
 8.07382   5667.34
 8.08318   5738.8
 8.09254   5808.31
 8.1019   5952.36
 8.11126   6023.7
 8.12062   6037.14
 8.12998   6068.75
 8.13934   6100.09
 8.1487   6119.07
 8.15806   6155.92
 8.16742   6192.65
 8.17678   6311.59
 8.18614   6445.08
 8.1955   6578.67
 8.20486   6772.52
 8.21422   6966.94
 8.22358   7133.95
 8.23294   7247.34
 8.2423   7300.76
 8.25166   7239.65
 8.26102   7141.54
 8.27038   6992.38
 8.27974   6819.69
 8.2891   6620.57
 8.29846   6420.27
 8.30782   6217.38
 8.31718   6043.68
 8.32654   5852.03
 8.3359   5740.57
 8.34526   5656.49
 8.35462   5638.65
 8.36398   5633.9
 8.37334   5804.39
 8.3827   6188.63
 8.39206   6286.85
 8.40142   6894.46
 8.41078   7086.21
 8.42014   6892.85
 8.4295   6375.37
 8.43886   6305.27
 8.44822   6074.98
 8.45758   6062.31
 8.46694   6119.92
 8.4763   6188.76
 8.48566   6253.94
 8.49502   6304.66
 8.50438   6340.84
 8.51374   6356.27
 8.5231   6381.48
 8.53246   6386.64
 8.54182   6381.47
 8.55118   6374.9
 8.56054   6328.35
 8.5699   6269.27
 8.57926   6191.02
 8.58862   6114.6
 8.59798   6017.33
 8.60734   5926.52
 8.6167   5871.3
 8.62606   5785.51
 8.63542   5721.32
 8.64478   5671.23
 8.65414   5637.15
 8.6635   5598.15
 8.67286   5568.01
 8.68222   5560.43
 8.69158   5545.1
 8.70094   5529.06
 8.7103   5523.04
 8.71966   5521.4
 8.72902   5520.05
 8.73838   5509.03
 8.74774   5503.1
 8.7571   5504.22
 8.76646   5485.13
 8.77582   5468.68
 8.78518   5453.46
 8.79454   5429.58
 8.8039   5409.52
 8.81326   5385.84
 8.82262   5349.67
 8.83198   5308.82
 8.84134   5271.93
 8.8507   5224.9
 8.86006   5156.98
 8.86942   5106.73
 8.87878   5067.98
 8.88814   5032.72
 8.8975   5004.8
 8.90686   4986.34
 8.91622   4982.15
 8.92558   4976.4
 8.93494   4958.41
 8.9443   4965.7
 8.95366   4966.67
 8.96302   4970.97
 8.97238   4966.47
 8.98174   4969.1
 8.9911   4964.79
 9.00046   4965.85
 9.00982   4944.08
 9.01918   4940.3
 9.02854   4920.46
 9.0379   4911.92
 9.04726   4887.27
 9.05662   4892
 9.06598   4890.83
 9.07534   4883.46
 9.0847   4880.4
 9.09406   4890.36
 9.10342   4896.11
 9.11278   4904.3
 9.12214   4925.08
 9.1315   4948.13
 9.14086   4953.08
 9.15022   4953.44
 9.15958   4969.02
 9.16894   4981.89
 9.1783   5005.18
 9.18766   5037.04
 9.19702   5060.72
 9.20638   5104.29
 9.21574   5156.22
 9.2251   5208.85
 9.23446   5267.69
 9.24382   5346.11
 9.25318   5424.3
 9.26254   5504.67
 9.2719   5584.35
 9.28126   5648.22
 9.29062   5691.74
 9.29998   5714.21
 9.30934   5735.86
 9.3187   5723.2
 9.32806   5721.31
 9.33742   5707.68
 9.34678   5690.65
 9.35614   5657.65
 9.3655   5630.15
 9.37486   5577.83
 9.38422   5526.65
 9.39358   5477.21
 9.40294   5436.76
 9.4123   5383.03
 9.42166   5345.34
 9.43102   5317.02
 9.44038   5290.83
 9.44974   5276.29
 9.4591   5271.4
 9.46846   5288.47
 9.47782   5296.25
 9.48718   5314.43
 9.49654   5316.08
 9.5059   5316.42
 9.51526   5316.32
 9.52462   5298.03
 9.53398   5287.24
 9.54334   5289.91
 9.5527   5291.02
 9.56206   5305.14
 9.57142   5300.72
 9.58078   5300.17
 9.59014   5306.91
 9.5995   5309.1
 9.60886   5316.18
 9.61822   5307
 9.62758   5289.97
 9.63694   5264.15
 9.6463   5236.78
 9.65566   5228.08
 9.66502   5192.95
 9.67438   5176
 9.68374   5149.59
 9.6931   5140.94
 9.70246   5108.86
 9.71182   5090.43
 9.72118   5053.3
 9.73054   5039.14
 9.7399   5025.6
 9.74926   5033.95
 9.75862   5027.94
 9.76798   5046.57
 9.77734   5087.18
 9.7867   5126.88
 9.79606   5191.81
 9.80542   5299.43
 9.81478   5470.2
 9.82414   5747.61
 9.8335   6450.58
 9.84286   7622.25
 9.85222   9062.88
 9.86158   11094.3
 9.87094   10554.9
 9.8803   8581.39
 9.88966   6987.27
 9.89902   6269.94
 9.90838   5802.23
 9.91774   5638.51
 9.9271   5566.73
 9.93646   5503.9
 9.94582   5478.38
 9.95518   5466.55
 9.96454   5453.14
 9.9739   5436.83
 9.98326   5422.57
 9.99262   5413.16
 10.002   5395.81
 10.0113   5370.74
 10.0207   5348.22
 10.0301   5311.58
 10.0394   5269.51
 10.0488   5244.08
 10.0581   5226.68
 10.0675   5202.8
 10.0769   5206.7
 10.0862   5174.48
 10.0956   5175.52
 10.1049   5174.96
 10.1143   5163.87
 10.1237   5163.69
 10.133   5174.69
 10.1424   5196.02
 10.1517   5201.85
 10.1611   5208.54
 10.1705   5238.18
 10.1798   5230.3
 10.1892   5225.2
 10.1985   5255.65
 10.2079   5271.07
 10.2173   5271.96
 10.2266   5278.17
 10.236   5286.71
 10.2453   5302.83
 10.2547   5337.02
 10.2641   5451.04
 10.2734   5602.36
 10.2828   5498.75
 10.2921   5752.64
 10.3015   5887.47
 10.3109   5805.01
 10.3202   5622.12
 10.3296   5826.51
 10.3389   5394.09
 10.3483   5241.76
 10.3577   5162.13
 10.367   5121.52
 10.3764   5114.54
 10.3857   5107.61
 10.3951   5098.27
 10.4045   5092.41
 10.4138   5093.8
 10.4232   5114.79
 10.4325   5090.86
 10.4419   5123.75
 10.4513   5120.29
 10.4606   5126.93
 10.47   5135.38
 10.4793   5162.14
 10.4887   5153.14
 10.4981   5163.63
 10.5074   5177.16
 10.5168   5173.67
 10.5261   5163.36
 10.5355   5167.06
 10.5449   5158.4
 10.5542   5134.54
 10.5636   5108.48
 10.5729   5110.52
 10.5823   5089.69
 10.5917   5075.77
 10.601   5054.92
 10.6104   5049.75
 10.6197   5047.16
 10.6291   5038.53
 10.6385   5019.17
 10.6478   5013.56
 10.6572   5017.97
 10.6665   5011.14
 10.6759   5005.3
 10.6853   4999.67
 10.6946   5008.4
 10.704   5007.8
 10.7133   5038.31
 10.7227   5028.27
 10.7321   5032.73
 10.7414   5063.05
 10.7508   5092.06
 10.7601   5079.22
 10.7695   5080.7
 10.7789   5092.62
 10.7882   5083.53
 10.7976   5076.96
 10.8069   5043.69
 10.8163   5044.09
 10.8257   5042.11
 10.835   5030.78
 10.8444   5030.03
 10.8537   5008.49
 10.8631   5010.74
 10.8725   4995.57
 10.8818   4976.05
 10.8912   4948.99
 10.9005   4932.43
 10.9099   4916.92
 10.9193   4889.41
 10.9286   4869.85
 10.938   4859.67
 10.9473   4839.83
 10.9567   4822.49
 10.9661   4822.01
 10.9754   4810.18
 10.9848   4793.73
 10.9941   4779.36
 11.0035   4772.1
 11.0129   4785
 11.0222   4787.31
 11.0316   4784.58
 11.0409   4799.6
 11.0503   4816.95
 11.0597   4825.94
 11.069   4833.01
 11.0784   4858.84
 11.0877   4881.76
 11.0971   4907.3
 11.1065   4950.12
 11.1158   4993.14
 11.1252   5019.37
 11.1345   5037.64
 11.1439   5029.51
 11.1533   5019.68
 11.1626   4995.15
 11.172   4981.31
 11.1813   4951.67
 11.1907   4908.3
 11.2001   4873.43
 11.2094   4865.96
 11.2188   4851.48
 11.2281   4837.12
 11.2375   4822.87
 11.2469   4806.22
 11.2562   4795.13
 11.2656   4777.65
 11.2749   4754.25
 11.2843   4733.23
 11.2937   4727.24
 11.303   4710.08
 11.3124   4686.66
 11.3217   4668.64
 11.3311   4659.45
 11.3405   4640.97
 11.3498   4617.91
 11.3592   4602.05
 11.3685   4585.59
 11.3779   4581.06
 11.3873   4561.88
 11.3966   4541.65
 11.406   4546.59
 11.4153   4537.34
 11.4247   4529.28
 11.4341   4509.91
 11.4434   4517.85
 11.4528   4510.57
 11.4621   4497.97
 11.4715   4489.29
 11.4809   4491.23
 11.4902   4485.36
 11.4996   4491.41
 11.5089   4475.23
 11.5183   4461.76
 11.5277   4461.51
 11.537   4439.06
 11.5464   4425.86
 11.5557   4405.75
 11.5651   4408.38
 11.5745   4402.14
 11.5838   4394.18
 11.5932   4388.1
 11.6025   4382.64
 11.6119   4382.34
 11.6213   4383.65
 11.6306   4374.04
 11.64   4377.57
 11.6493   4370.81
 11.6587   4351.61
 11.6681   4342.08
 11.6774   4340.75
 11.6868   4334.25
 11.6961   4332.67
 11.7055   4329.19
 11.7149   4325.59
 11.7242   4320.81
 11.7336   4328.59
 11.7429   4316.78
 11.7523   4324.72
 11.7617   4326.76
 11.771   4326.09
 11.7804   4325.97
 11.7897   4339.08
 11.7991   4330.94
 11.8085   4335.52
 11.8178   4343.64
 11.8272   4348.74
 11.8365   4347.69
 11.8459   4368.9
 11.8553   4376.03
 11.8646   4405.92
 11.874   4464.04
 11.8833   4488.71
 11.8927   4532.26
 11.9021   4584.08
 11.9114   4591.08
 11.9208   4535.16
 11.9301   4513.7
 11.9395   4496.75
 11.9489   4467.13
 11.9582   4462.02
 11.9676   4474.86
 11.9769   4471.07
 11.9863   4489.84
 11.9957   4490.99
 12.005   4500.48
 12.0144   4504.79
 12.0237   4485.63
 12.0331   4485.59
 12.0425   4485.52
 12.0518   4488.63
 12.0612   4477.03
 12.0705   4481.46
 12.0799   4480.54
 12.0893   4469.57
 12.0986   4468.29
 12.108   4448.41
 12.1173   4444.48
 12.1267   4407.86
 12.1361   4376.04
 12.1454   4344.82
 12.1548   4306.77
 12.1641   4267.32
 12.1735   4233.38
 12.1829   4200.74
 12.1922   4177.85
 12.2016   4150.29
 12.2109   4143.42
 12.2203   4123.99
 12.2297   4113.16
 12.239   4104.83
 12.2484   4095.91
 12.2577   4090.61
 12.2671   4086.22
 12.2765   4089.45
 12.2858   4088.33
 12.2952   4084.59
 12.3045   4083.21
 12.3139   4092.27
 12.3233   4082.25
 12.3326   4081.21
 12.342   4090.69
 12.3513   4092.98
 12.3607   4098.62
 12.3701   4103.61
 12.3794   4110.1
 12.3888   4121.54
 12.3981   4131.84
 12.4075   4133.95
 12.4169   4135.59
 12.4262   4144.85
 12.4356   4137.78
 12.4449   4150.15
 12.4543   4151.59
 12.4637   4169.4
 12.473   4187.65
 12.4824   4188.5
 12.4917   4183.76
 12.5011   4184.68
 12.5105   4188.67
 12.5198   4178.96
 12.5292   4165.1
 12.5385   4165.72
 12.5479   4172.25
 12.5573   4170.55
 12.5666   4175.1
 12.576   4183.91
 12.5853   4198.21
 12.5947   4203.5
 12.6041   4222.73
 12.6134   4234.65
 12.6228   4245.68
 12.6321   4254.33
 12.6415   4250.94
 12.6509   4242.95
 12.6602   4250.18
 12.6696   4238.3
 12.6789   4229.66
 12.6883   4215.43
 12.6977   4213.7