File: docs/GuiliangJun25_tutorial_output/integrals/MA2b-00005_spotsmasked.chi
MA2b-00005.tif Azm= 0.00
2-Theta Angle (Degrees)
Intensity
       2500
 1.00702   7981.38
 1.01638   7947.22
 1.02574   7892.33
 1.0351   7841.39
 1.04446   7730.2
 1.05382   7718.21
 1.06318   7677.85
 1.07254   7661.52
 1.0819   7587.31
 1.09126   7570.41
 1.10062   7499
 1.10998   7464.61
 1.11934   7431.09
 1.1287   7406.32
 1.13806   7362.81
 1.14742   7328.23
 1.15678   7326.31
 1.16614   7307.11
 1.1755   7279.08
 1.18486   7281.41
 1.19422   7265.56
 1.20358   7235.76
 1.21294   7218.65
 1.2223   7243.83
 1.23166   7198.22
 1.24102   7189.37
 1.25038   7177.5
 1.25974   7176.34
 1.2691   7210.61
 1.27846   7208.48
 1.28782   7171.04
 1.29718   7173.79
 1.30654   7196.63
 1.3159   7180.68
 1.32526   7186.92
 1.33462   7183.97
 1.34398   7184.29
 1.35334   7231.49
 1.3627   7218.73
 1.37206   7267.95
 1.38142   7266.37
 1.39078   7316.1
 1.40014   7336.66
 1.4095   7376.41
 1.41886   7367.63
 1.42822   7422.99
 1.43758   7480.55
 1.44694   7524.52
 1.4563   7598.9
 1.46566   7620.99
 1.47502   7653.35
 1.48438   7704.06
 1.49374   7736.31
 1.5031   7798.4
 1.51246   7828.91
 1.52182   7841.23
 1.53118   7877.21
 1.54054   7889.96
 1.5499   7832.07
 1.55926   7831.64
 1.56862   7774.63
 1.57798   7787.6
 1.58734   7766.32
 1.5967   7766.26
 1.60606   7768.72
 1.61542   7766.55
 1.62478   7751.58
 1.63414   7767.88
 1.6435   7746.89
 1.65286   7787.54
 1.66222   7760.65
 1.67158   7760.14
 1.68094   7755.75
 1.6903   7778.84
 1.69966   7766.59
 1.70902   7786.29
 1.71838   7791.41
 1.72774   7790.24
 1.7371   7786.32
 1.74646   7796.42
 1.75582   7812.36
 1.76518   7847.47
 1.77454   7855.73
 1.7839   7880.47
 1.79326   7898.5
 1.80262   7934.13
 1.81198   7980.6
 1.82134   7993.54
 1.8307   8021.89
 1.84006   8064.34
 1.84942   8089.93
 1.85878   8128.81
 1.86814   8194.58
 1.8775   8228.24
 1.88686   8247.85
 1.89622   8311.59
 1.90558   8351.47
 1.91494   8376.12
 1.9243   8439.84
 1.93366   8492.48
 1.94302   8553.06
 1.95238   8585.23
 1.96174   8644.38
 1.9711   8695.53
 1.98046   8753.11
 1.98982   8808.48
 1.99918   8851.09
 2.00854   8905.04
 2.0179   8959.12
 2.02726   9052.81
 2.03662   9082.14
 2.04598   9143.99
 2.05534   9236.11
 2.0647   9319.07
 2.07406   9448.1
 2.08342   9642.21
 2.09278   9941.86
 2.10214   10515.5
 2.1115   11645.4
 2.12086   13951.2
 2.13022   18282.6
 2.13958   23841.6
 2.14894   28167.6
 2.1583   28720
 2.16766   26372.4
 2.17702   23051.2
 2.18638   20010.4
 2.19574   17382.9
 2.2051   15254.3
 2.21446   13836.1
 2.22382   12980.2
 2.23318   12466.4
 2.24254   12073.7
 2.2519   11615.1
 2.26126   11175.4
 2.27062   10838.3
 2.27998   10648.2
 2.28934   10551.8
 2.2987   10561.7
 2.30806   10557.8
 2.31742   10576.2
 2.32678   10619.6
 2.33614   10680.3
 2.3455   10738.4
 2.35486   10810.1
 2.36422   10836.1
 2.37358   10908.4
 2.38294   10963.6
 2.3923   11047.5
 2.40166   11121.4
 2.41102   11163.8
 2.42038   11245
 2.42974   11301.8
 2.4391   11374.9
 2.44846   11457.1
 2.45782   11539.2
 2.46718   11601.8
 2.47654   11666.5
 2.4859   11762.5
 2.49526   11841.1
 2.50462   11926.3
 2.51398   12001.3
 2.52334   12061.2
 2.5327   12127
 2.54206   12212.2
 2.55142   12258.6
 2.56078   12325.8
 2.57014   12399.9
 2.5795   12434.2
 2.58886   12510.5
 2.59822   12551.7
 2.60758   12602.6
 2.61694   12654.4
 2.6263   12690.2
 2.63566   12740.7
 2.64502   12779.4
 2.65438   12804
 2.66374   12832.5
 2.6731   12847
 2.68246   12850.2
 2.69182   12889.9
 2.70118   12913.5
 2.71054   12929.5
 2.7199   12955.2
 2.72926   12949.3
 2.73862   12935
 2.74798   12937.7
 2.75734   12894.2
 2.7667   12911.8
 2.77606   12893.3
 2.78542   12873
 2.79478   12851.9
 2.80414   12853
 2.8135   12819.8
 2.82286   12794.1
 2.83222   12775.7
 2.84158   12745.5
 2.85094   12686.4
 2.8603   12663.2
 2.86966   12629.9
 2.87902   12616.4
 2.88838   12563
 2.89774   12536.3
 2.9071   12516.5
 2.91646   12475.6
 2.92582   12439.2
 2.93518   12390.3
 2.94454   12349.4
 2.9539   12320
 2.96326   12256
 2.97262   12223.6
 2.98198   12187.9
 2.99134   12112.1
 3.0007   12059.4
 3.01006   12023.3
 3.01942   11968.9
 3.02878   11929.6
 3.03814   11886.9
 3.0475   11804.4
 3.05686   11752.6
 3.06622   11688.3
 3.07558   11620.7
 3.08494   11583.6
 3.0943   11536.5
 3.10366   11503.5
 3.11302   11445.6
 3.12238   11411.3
 3.13174   11379.8
 3.1411   11308
 3.15046   11283.8
 3.15982   11249.4
 3.16918   11214.2
 3.17854   11174.1
 3.1879   11148.4
 3.19726   11133.5
 3.20662   11098.7
 3.21598   11047.6
 3.22534   11032.5
 3.2347   11006.6
 3.24406   10960.1
 3.25342   10932.3
 3.26278   10915.1
 3.27214   10914.1
 3.2815   10857.7
 3.29086   10860.5
 3.30022   10852.2
 3.30958   10845.8
 3.31894   10832.2
 3.3283   10834.1
 3.33766   10836.3
 3.34702   10806.2
 3.35638   10785.9
 3.36574   10792.3
 3.3751   10801.9
 3.38446   10770.6
 3.39382   10774.6
 3.40318   10784.5
 3.41254   10822.2
 3.4219   10790.9
 3.43126   10792.1
 3.44062   10814.2
 3.44998   10814.9
 3.45934   10799.2
 3.4687   10809.6
 3.47806   10820.5
 3.48742   10827.9
 3.49678   10802.6
 3.50614   10808.2
 3.5155   10826.9
 3.52486   10815.7
 3.53422   10787.5
 3.54358   10831.3
 3.55294   10853.3
 3.5623   10777.1
 3.57166   10799.5
 3.58102   10850.7
 3.59038   10814.6
 3.59974   10766.4
 3.6091   10794.5
 3.61846   10838
 3.62782   10758.5
 3.63718   10722.2
 3.64654   10784.8
 3.6559   10806.3
 3.66526   10708.4
 3.67462   10635.2
 3.68398   10692.5
 3.69334   10684.8
 3.7027   10536.4
 3.71206   10546.2
 3.72142   10533.3
 3.73078   10409.4
 3.74014   10251.2
 3.7495   10250.2
 3.75886   10193.1
 3.76822   10041.9
 3.77758   9917.76
 3.78694   9919.46
 3.7963   9909.29
 3.80566   9708.72
 3.81502   9649.19
 3.82438   9724.26
 3.83374   9649.17
 3.8431   9466.53
 3.85246   9516.42
 3.86182   9439.14
 3.87118   9421.46
 3.88054   9259.41
 3.8899   9243.54
 3.89926   9228.08
 3.90862   9097.42
 3.91798   9011.79
 3.92734   9039.69
 3.9367   8967.63
 3.94606   8890.64
 3.95542   8877.58
 3.96478   8818.95
 3.97414   8773.46
 3.9835   8715.83
 3.99286   8650.39
 4.00222   8699.54
 4.01158   8628.95
 4.02094   8495.64
 4.0303   8520.62
 4.03966   8524.84
 4.04902   8420.39
 4.05838   8358.27
 4.06774   8403.15
 4.0771   8343.8
 4.08646   8268.36
 4.09582   8190.4
 4.10518   8225.86
 4.11454   8219.2
 4.1239   8109
 4.13326   8093.05
 4.14262   8116.56
 4.15198   8084.44
 4.16134   7942.14
 4.1707   7977.9
 4.18006   8010.62
 4.18942   8008.38
 4.19878   7924.74
 4.20814   7956.51
 4.2175   8080.85
 4.22686   7968.07
 4.23622   7934.97
 4.24558   8065.86
 4.25494   8191.8
 4.2643   8352.88
 4.27366   8787.59
 4.28302   9221.99
 4.29238   9582.2
 4.30174   9642.68
 4.3111   9579.01
 4.32046   9387.06
 4.32982   9124.44
 4.33918   8900.67
 4.34854   8765.62
 4.3579   8679.27
 4.36726   8493.77
 4.37662   8317.58
 4.38598   8174.69
 4.39534   8063.86
 4.4047   7950.73
 4.41406   7831.48
 4.42342   7767.1
 4.43278   7778.2
 4.44214   7682.39
 4.4515   7592.23
 4.46086   7587.76
 4.47022   7567.87
 4.47958   7485.95
 4.48894   7458.35
 4.4983   7409.57
 4.50766   7338.3
 4.51702   7227.86
 4.52638   7164.67
 4.53574   7151.17
 4.5451   7106.7
 4.55446   7055
 4.56382   7041.7
 4.57318   7013.48
 4.58254   6989.84
 4.5919   6944.07
 4.60126   6895.34
 4.61062   6875.32
 4.61998   6831.62
 4.62934   6813.25
 4.6387   6800.77
 4.64806   6763.38
 4.65742   6730.4
 4.66678   6734.4
 4.67614   6692.54
 4.6855   6691.2
 4.69486   6676.21
 4.70422   6684.56
 4.71358   6716.75
 4.72294   6791.11
 4.7323   6844
 4.74166   6926.52
 4.75102   7004.84
 4.76038   7107.21
 4.76974   7244.48
 4.7791   7485.19
 4.78846   7805.88
 4.79782   8170.1
 4.80718   8619.97
 4.81654   8984.77
 4.8259   9317.81
 4.83526   9489.39
 4.84462   9336.44
 4.85398   8922.34
 4.86334   8352.93
 4.8727   7826.7
 4.88206   7510.71
 4.89142   7385.22
 4.90078   7411.02
 4.91014   7555.87
 4.9195   7707.52
 4.92886   7887.98
 4.93822   8069.56
 4.94758   8333.44
 4.95694   8647.24
 4.9663   9060.21
 4.97566   9482.6
 4.98502   9797.01
 4.99438   9947.79
 5.00374   9780.77
 5.0131   9336.15
 5.02246   8732.13
 5.03182   8116.82
 5.04118   7591.78
 5.05054   7213.08
 5.0599   6966.62
 5.06926   6883.31
 5.07862   6936.03
 5.08798   7176.4
 5.09734   7827.84
 5.1067   9553.26
 5.11606   12888.7
 5.12542   21221.3
 5.13478   39636.8
 5.14414   51254.1
 5.1535   41646.2
 5.16286   26222.5
 5.17222   14882.3
 5.18158   9443.97
 5.19094   7378.08
 5.2003   6787.23
 5.20966   6508.55
 5.21902   6322.48
 5.22838   6182.6
 5.23774   6120.47
 5.2471   6071.01
 5.25646   6012.24
 5.26582   5974.57
 5.27518   5960.92
 5.28454   5936.46
 5.2939   5930.92
 5.30326   5904.94
 5.31262   5901.57
 5.32198   5910.09
 5.33134   5883.43
 5.3407   5865.72
 5.35006   5867.75
 5.35942   5865.08
 5.36878   5859.99
 5.37814   5857.21
 5.3875   5857.42
 5.39686   5878.16
 5.40622   5888.16
 5.41558   5878.91
 5.42494   5904.35
 5.4343   5944.53
 5.44366   5956.31
 5.45302   5993.37
 5.46238   6039.74
 5.47174   6116.25
 5.4811   6206.29
 5.49046   6343.18
 5.49982   6527.35
 5.50918   6834.56
 5.51854   7242.36
 5.5279   7833.28
 5.53726   8649.53
 5.54662   9548.41
 5.55598   10317.1
 5.56534   10686.4
 5.5747   10674
 5.58406   10315.1
 5.59342   9761.82
 5.60278   9141.51
 5.61214   8578.76
 5.6215   8092.71
 5.63086   7652.92
 5.64022   7306.62
 5.64958   7036.25
 5.65894   6805.87
 5.6683   6629.19
 5.67766   6459.54
 5.68702   6352.56
 5.69638   6253.76
 5.70574   6184.45
 5.7151   6141.26
 5.72446   6127.93
 5.73382   6108.7
 5.74318   6100.58
 5.75254   6123.76
 5.7619   6171.17
 5.77126   6145.66
 5.78062   6133.49
 5.78998   6114.63
 5.79934   6100.86
 5.8087   6105.23
 5.81806   6097.98
 5.82742   6137.56
 5.83678   6166.7
 5.84614   6210.12
 5.8555   6271.62
 5.86486   6387.26
 5.87422   6491.14
 5.88358   6678.75
 5.89294   6883.59
 5.9023   7291.97
 5.91166   8108.58
 5.92102   9645.71
 5.93038   12501.8
 5.93974   14719.7
 5.9491   14662
 5.95846   12742.6
 5.96782   10803.9
 5.97718   9815.99
 5.98654   9394.58
 5.9959   8999.81
 6.00526   8576.72
 6.01462   8131.81
 6.02398   7722.45
 6.03334   7307.27
 6.0427   6995.55
 6.05206   6755.21
 6.06142   6549.4
 6.07078   6372.16
 6.08014   6271.8
 6.0895   6194.84
 6.09886   6121.64
 6.10822   6048.9
 6.11758   6019.01
 6.12694   5995.02
 6.1363   5985.81
 6.14566   5961.25
 6.15502   5953.29
 6.16438   5951.62
 6.17374   5923.98
 6.1831   5918.51
 6.19246   5922.28
 6.20182   5925.72
 6.21118   5915.77
 6.22054   5920.33
 6.2299   5964.56
 6.23926   5934.53
 6.24862   5930.92
 6.25798   5943.79
 6.26734   5951.65
 6.2767   5955.9
 6.28606   5928.21
 6.29542   5956.09
 6.30478   5980.35
 6.31414   5968.82
 6.3235   5969.57
 6.33286   5984.41
 6.34222   6002.01
 6.35158   5982.92
 6.36094   5989.55
 6.3703   5997.95
 6.37966   5997.13
 6.38902   6006.79
 6.39838   5998.11
 6.40774   6029.5
 6.4171   6049.41
 6.42646   6048.21
 6.43582   6062.88
 6.44518   6112.02
 6.45454   6085.83
 6.4639   6077.71
 6.47326   6062.74
 6.48262   6087.47
 6.49198   6102.52
 6.50134   6076.28
 6.5107   6098.74
 6.52006   6131.97
 6.52942   6129.97
 6.53878   6141.59
 6.54814   6184.18
 6.5575   6186.92
 6.56686   6218.19
 6.57622   6213.31
 6.58558   6247.91
 6.59494   6267.03
 6.6043   6267.83
 6.61366   6266.1
 6.62302   6297.93
 6.63238   6339.3
 6.64174   6330.75
 6.6511   6356.94
 6.66046   6405.81
 6.66982   6405.08
 6.67918   6421.77
 6.68854   6418.29
 6.6979   6445.62
 6.70726   6508.73
 6.71662   6508.41
 6.72598   6546.43
 6.73534   6613.4
 6.7447   6632.26
 6.75406   6648.64
 6.76342   6680.99
 6.77278   6768.53
 6.78214   6764.19
 6.7915   6780.99
 6.80086   6786.19
 6.81022   6819.07
 6.81958   6843.08
 6.82894   6819.81
 6.8383   6863.7
 6.84766   6971.59
 6.85702   6984.02
 6.86638   7082.59
 6.87574   7196.47
 6.8851   7324.2
 6.89446   7472.39
 6.90382   7656.35
 6.91318   7841.77
 6.92254   8030.71
 6.9319   8179.01
 6.94126   8263.03
 6.95062   8335.8
 6.95998   8329.71
 6.96934   8224.95
 6.9787   8195.67
 6.98806   8116.29
 6.99742   8016.17
 7.00678   7979.28
 7.01614   7888.95
 7.0255   7829.06
 7.03486   7753.38
 7.04422   7668.89
 7.05358   7591.93
 7.06294   7604.57
 7.0723   7484.61
 7.08166   7319.16
 7.09102   7149.01
 7.10038   7058.36
 7.10974   6966.29
 7.1191   6899.49
 7.12846   6867.06
 7.13782   6830.63
 7.14718   6799.8
 7.15654   6774.15
 7.1659   6752.2
 7.17526   6767.82
 7.18462   6741.28
 7.19398   6724.44
 7.20334   6706.79
 7.2127   6727.09
 7.22206   6683.35
 7.23142   6689.05
 7.24078   6708.85
 7.25014   6724.05
 7.2595   6719.33
 7.26886   6730.11
 7.27822   6734.18
 7.28758   6734.42
 7.29694   6712.67
 7.3063   6732.96
 7.31566   6748.12
 7.32502   6772.34
 7.33438   6789.18
 7.34374   6837.17
 7.3531   6868.21
 7.36246   6900.38
 7.37182   6948
 7.38118   6970.36
 7.39054   6987.63
 7.3999   7032.99
 7.40926   7059.96
 7.41862   7121.52
 7.42798   7189.82
 7.43734   7252.97
 7.4467   7305.19
 7.45606   7381.74
 7.46542   7406.11
 7.47478   7428.28
 7.48414   7410.54
 7.4935   7384.96
 7.50286   7372.56
 7.51222   7353.32
 7.52158   7314.7
 7.53094   7274.35
 7.5403   7258.84
 7.54966   7230.06
 7.55902   7209.14
 7.56838   7179.5
 7.57774   7154.7
 7.5871   7100.12
 7.59646   7048.14
 7.60582   6959.99
 7.61518   6874.54
 7.62454   6727.03
 7.6339   6608.28
 7.64326   6504.59
 7.65262   6425.4
 7.66198   6345.77
 7.67134   6292.21
 7.6807   6248.32
 7.69006   6198.88
 7.69942   6160.33
 7.70878   6129.84
 7.71814   6109.7
 7.7275   6081.43
 7.73686   6060.24
 7.74622   6037.37
 7.75558   5984.31
 7.76494   5978.94
 7.7743   5969.12
 7.78366   5948.9
 7.79302   5927.68
 7.80238   5882.49
 7.81174   5875.61
 7.8211   5859.8
 7.83046   5813.75
 7.83982   5807.06
 7.84918   5818.78
 7.85854   5775.07
 7.8679   5745.01
 7.87726   5766.7
 7.88662   5750.6
 7.89598   5720.79
 7.90534   5699.64
 7.9147   5693.23
 7.92406   5689.92
 7.93342   5690.25
 7.94278   5665.87
 7.95214   5646.14
 7.9615   5664.94
 7.97086   5629.21
 7.98022   5604.78
 7.98958   5622.16
 7.99894   5617.45
 8.0083   5590.63
 8.01766   5567.86
 8.02702   5571.25
 8.03638   5572.36
 8.04574   5560.28
 8.0551   5537.61
 8.06446   5557.68
 8.07382   5615.35
 8.08318   5639.99
 8.09254   5677.3
 8.1019   5734.57
 8.11126   5787.67
 8.12062   5804.05
 8.12998   5795.77
 8.13934   5822.31
 8.1487   5859.61
 8.15806   5853.84
 8.16742   5887.73
 8.17678   5942.03
 8.18614   6006.56
 8.1955   6089.95
 8.20486   6212.86
 8.21422   6385.17
 8.22358   6585.27
 8.23294   6755.11
 8.2423   6910.28
 8.25166   7086.68
 8.26102   7227.09
 8.27038   7353.67
 8.27974   7458.3
 8.2891   7506.6
 8.29846   7469.76
 8.30782   7320.21
 8.31718   7065.03
 8.32654   6746.97
 8.3359   6464.54
 8.34526   6211.36
 8.35462   6038.63
 8.36398   5942.1
 8.37334   6032.85
 8.3827   6397.77
 8.39206   6963.95
 8.40142   7811.35
 8.41078   8103.97
 8.42014   7529.66
 8.4295   6571.18
 8.43886   6187.17
 8.44822   5913.83
 8.45758   5865
 8.46694   5877.48
 8.4763   5928.41
 8.48566   5999.07
 8.49502   6084.25
 8.50438   6188.62
 8.51374   6316.93
 8.5231   6448.37
 8.53246   6574.73
 8.54182   6715.97
 8.55118   6861.79
 8.56054   6946.7
 8.5699   7004.59
 8.57926   7026.87
 8.58862   7013.83
 8.59798   6936.84
 8.60734   6812.07
 8.6167   6658.33
 8.62606   6501.18
 8.63542   6332.44
 8.64478   6185.03
 8.65414   6051.21
 8.6635   5923.76
 8.67286   5827.69
 8.68222   5733.8
 8.69158   5662.18
 8.70094   5613.12
 8.7103   5556.32
 8.71966   5523.91
 8.72902   5488.23
 8.73838   5446.42
 8.74774   5412.05
 8.7571   5390.96
 8.76646   5372.09
 8.77582   5321.22
 8.78518   5316.58
 8.79454   5309.49
 8.8039   5283.16
 8.81326   5258.74
 8.82262   5231.64
 8.83198   5211.82
 8.84134   5200.83
 8.8507   5155.51
 8.86006   5106.19
 8.86942   5082.72
 8.87878   5054.41
 8.88814   5038.85
 8.8975   5025.47
 8.90686   5022.62
 8.91622   5026.55
 8.92558   5013.84
 8.93494   4997.65
 8.9443   4995.67
 8.95366   5003.78
 8.96302   5004.02
 8.97238   5000.56
 8.98174   5006.01
 8.9911   4996.25
 9.00046   4994.55
 9.00982   4995.39
 9.01918   4977.67
 9.02854   4962.29
 9.0379   4964.92
 9.04726   4949.73
 9.05662   4944.37
 9.06598   4953
 9.07534   4947.85
 9.0847   4950.38
 9.09406   4952.77
 9.10342   4961.19
 9.11278   4969.65
 9.12214   4988.9
 9.1315   5000.69
 9.14086   5008.43
 9.15022   5034.34
 9.15958   5051.35
 9.16894   5072.51
 9.1783   5092.91
 9.18766   5131.71
 9.19702   5158.68
 9.20638   5189.45
 9.21574   5231.54
 9.2251   5258.87
 9.23446   5299.57
 9.24382   5344.05
 9.25318   5379.77
 9.26254   5432.85
 9.2719   5481.68
 9.28126   5547.39
 9.29062   5587.23
 9.29998   5636.96
 9.30934   5671.07
 9.3187   5700.52
 9.32806   5731.13
 9.33742   5736.52
 9.34678   5729.39
 9.35614   5705.64
 9.3655   5682.84
 9.37486   5610.64
 9.38422   5549.43
 9.39358   5482.7
 9.40294   5414.48
 9.4123   5351.01
 9.42166   5300.26
 9.43102   5261.41
 9.44038   5220.63
 9.44974   5196.78
 9.4591   5176.43
 9.46846   5174.78
 9.47782   5183.41
 9.48718   5182.14
 9.49654   5197.49
 9.5059   5199.06
 9.51526   5211.3
 9.52462   5201.61
 9.53398   5205.99
 9.54334   5218.52
 9.5527   5239.6
 9.56206   5249
 9.57142   5270.58
 9.58078   5297.9
 9.59014   5318.7
 9.5995   5340.19
 9.60886   5367.92
 9.61822   5391.68
 9.62758   5402.33
 9.63694   5392.77
 9.6463   5394.38
 9.65566   5404.75
 9.66502   5421.71
 9.67438   5444.48
 9.68374   5442
 9.6931   5439.68
 9.70246   5445.7
 9.71182   5410.93
 9.72118   5337.17
 9.73054   5279.45
 9.7399   5230.82
 9.74926   5185.01
 9.75862   5155.36
 9.76798   5144.92
 9.77734   5152.39
 9.7867   5169.32
 9.79606   5218.87
 9.80542   5285.22
 9.81478   5426.1
 9.82414   5736.3
 9.8335   6511.93
 9.84286   8223.11
 9.85222   10774.1
 9.86158   12716.1
 9.87094   11890.9
 9.8803   9360.64
 9.88966   7229.57
 9.89902   6149.73
 9.90838   5695.88
 9.91774   5518.19
 9.9271   5457.27
 9.93646   5420.25
 9.94582   5404.35
 9.95518   5407.1
 9.96454   5396.62
 9.9739   5407.2
 9.98326   5403.06
 9.99262   5412.72
 10.002   5408.9
 10.0113   5375.45
 10.0207   5365.27
 10.0301   5334.99
 10.0394   5309.55
 10.0488   5293.43
 10.0581   5278.92
 10.0675   5264.77
 10.0769   5249.35
 10.0862   5243.87
 10.0956   5240.66
 10.1049   5225.83
 10.1143   5227.76
 10.1237   5245.94
 10.133   5235.14
 10.1424   5259.61
 10.1517   5280.16
 10.1611   5305.97
 10.1705   5344.33
 10.1798   5366.78
 10.1892   5391.72
 10.1985   5468.34
 10.2079   5521.18
 10.2173   5574.75
 10.2266   5598.84
 10.236   5636.73
 10.2453   5671.63
 10.2547   5687.76
 10.2641   5777.31
 10.2734   6078.79
 10.2828   6795.78
 10.2921   8003.36
 10.3015   8708.82
 10.3109   8315.68
 10.3202   7015.52
 10.3296   6090.54
 10.3389   5547.14
 10.3483   5356.89
 10.3577   5271.99
 10.367   5231.13
 10.3764   5230.03
 10.3857   5227.5
 10.3951   5222.12
 10.4045   5219.77
 10.4138   5226.48
 10.4232   5256.45
 10.4325   5262.3
 10.4419   5296.47
 10.4513   5316.47
 10.4606   5353.84
 10.47   5380.51
 10.4793   5393.61
 10.4887   5401.67
 10.4981   5409.01
 10.5074   5415.92
 10.5168   5391.91
 10.5261   5362.79
 10.5355   5356.15
 10.5449   5311.17
 10.5542   5279.77
 10.5636   5261.24
 10.5729   5221.48
 10.5823   5185.3
 10.5917   5165.78
 10.601   5140.37
 10.6104   5122.18
 10.6197   5108.47
 10.6291   5099.13
 10.6385   5084.89
 10.6478   5068.61
 10.6572   5070.33
 10.6665   5067.9
 10.6759   5061.19
 10.6853   5044.25
 10.6946   5055.53
 10.704   5076.9
 10.7133   5084.19
 10.7227   5086.98
 10.7321   5106.6
 10.7414   5128.38
 10.7508   5167.9
 10.7601   5159.08
 10.7695   5167.71
 10.7789   5181.63
 10.7882   5183.23
 10.7976   5166.68
 10.8069   5145.05
 10.8163   5140.93
 10.8257   5129.44
 10.835   5119.15
 10.8444   5112.37
 10.8537   5094.59
 10.8631   5084.02
 10.8725   5060.26
 10.8818   5033.13
 10.8912   5007.72
 10.9005   4999.28
 10.9099   4963.36
 10.9193   4939.2
 10.9286   4917.14
 10.938   4905.93
 10.9473   4890.02
 10.9567   4868.74
 10.9661   4855
 10.9754   4850.36
 10.9848   4839.39
 10.9941   4834.24
 11.0035   4818.81
 11.0129   4824.19
 11.0222   4827.33
 11.0316   4831.13
 11.0409   4836.04
 11.0503   4835.47
 11.0597   4847.11
 11.069   4847.47
 11.0784   4853.74
 11.0877   4877.94
 11.0971   4909.45
 11.1065   4920.47
 11.1158   4940.52
 11.1252   4963
 11.1345   4990.06
 11.1439   5005.27
 11.1533   5006.66
 11.1626   5001.41
 11.172   4990.84
 11.1813   4980.17
 11.1907   4958.21
 11.2001   4923.05
 11.2094   4906.54
 11.2188   4897.23
 11.2281   4883.76
 11.2375   4848.13
 11.2469   4826.63
 11.2562   4799.03
 11.2656   4767.06
 11.2749   4729.87
 11.2843   4712.45
 11.2937   4706.19
 11.303   4688.44
 11.3124   4662.27
 11.3217   4646.03
 11.3311   4644.18
 11.3405   4620.39
 11.3498   4602.96
 11.3592   4589.71
 11.3685   4585.21
 11.3779   4586.89
 11.3873   4565.12
 11.3966   4557.43
 11.406   4551.76
 11.4153   4548.27
 11.4247   4540.18
 11.4341   4524.86
 11.4434   4527.94
 11.4528   4529.87
 11.4621   4512.43
 11.4715   4504.29
 11.4809   4507.13
 11.4902   4505.54
 11.4996   4493.25
 11.5089   4495
 11.5183   4485.84
 11.5277   4480.05
 11.537   4478.98
 11.5464   4463.95
 11.5557   4455.1
 11.5651   4456.57
 11.5745   4443.58
 11.5838   4437.12
 11.5932   4437.04
 11.6025   4438.07
 11.6119   4438.02
 11.6213   4440.45
 11.6306   4432.25
 11.64   4424.42
 11.6493   4416.76
 11.6587   4402.52
 11.6681   4394.9
 11.6774   4389.46
 11.6868   4381.07
 11.6961   4378.73
 11.7055   4378.36
 11.7149   4373.71
 11.7242   4383.24
 11.7336   4372.36
 11.7429   4360.6
 11.7523   4369.62
 11.7617   4378.36
 11.771   4363.89
 11.7804   4375.59
 11.7897   4369.31
 11.7991   4380.4
 11.8085   4384.6
 11.8178   4385.67
 11.8272   4391.01
 11.8365   4407.85
 11.8459   4425.39
 11.8553   4445.22
 11.8646   4483.29
 11.874   4556.44
 11.8833   4703.1
 11.8927   4924.87
 11.9021   5088.65
 11.9114   5047.79
 11.9208   4891.9
 11.9301   4727.4
 11.9395   4652
 11.9489   4620.23
 11.9582   4607.75
 11.9676   4626.99
 11.9769   4621.61
 11.9863   4616.12
 11.9957   4603.98
 12.005   4600.06
 12.0144   4599.14
 12.0237   4567.53
 12.0331   4551.73
 12.0425   4523.24
 12.0518   4500.27
 12.0612   4478.56
 12.0705   4453.77
 12.0799   4444.97
 12.0893   4429.77
 12.0986   4403.42
 12.108   4400.8
 12.1173   4374.73
 12.1267   4353.01
 12.1361   4317.91
 12.1454   4288.36
 12.1548   4271.94
 12.1641   4255.89
 12.1735   4225.01
 12.1829   4201.64
 12.1922   4192.03
 12.2016   4184.84
 12.2109   4171.87
 12.2203   4160.72
 12.2297   4144.58
 12.239   4133.4
 12.2484   4127.98
 12.2577   4127.23
 12.2671   4121.17
 12.2765   4123.92
 12.2858   4116.43
 12.2952   4115.86
 12.3045   4113.55
 12.3139   4109.16
 12.3233   4104.11
 12.3326   4116.64
 12.342   4114.21
 12.3513   4127.31
 12.3607   4128.83
 12.3701   4146.94
 12.3794   4145.61
 12.3888   4156.22
 12.3981   4161.51
 12.4075   4163.7
 12.4169   4162.47
 12.4262   4168.64
 12.4356   4169.76
 12.4449   4179.31
 12.4543   4169.12
 12.4637   4163.33
 12.473   4161.85
 12.4824   4163.41
 12.4917   4159.81
 12.5011   4143.06
 12.5105   4138.59
 12.5198   4130.54
 12.5292   4130.4
 12.5385   4124.95
 12.5479   4125.19
 12.5573   4119.48
 12.5666   4120.35
 12.576   4128.7
 12.5853   4129.42
 12.5947   4139.44
 12.6041   4146.75
 12.6134   4151.03
 12.6228   4175.68
 12.6321   4186.99
 12.6415   4195.79
 12.6509   4206.48
 12.6602   4223
 12.6696   4232.01
 12.6789   4244.4
 12.6883   4257.8
 12.6977   4268.49