File: docs/GuiliangJun25_tutorial_output/integrals/MA2b-00001_arcsmasked.chi
MA2b-00001.tif Azm= 0.00
2-Theta Angle (Degrees)
Intensity
       2500
 1.00702   7849.74
 1.01638   7790.83
 1.02574   7744.8
 1.0351   7659.02
 1.04446   7597.44
 1.05382   7582.61
 1.06318   7478.99
 1.07254   7488.44
 1.0819   7432.07
 1.09126   7411.97
 1.10062   7373.02
 1.10998   7322.77
 1.11934   7293.86
 1.1287   7261.64
 1.13806   7236.14
 1.14742   7217.83
 1.15678   7189.4
 1.16614   7156.25
 1.1755   7136.31
 1.18486   7150.17
 1.19422   7107.07
 1.20358   7098.43
 1.21294   7079.34
 1.2223   7107.99
 1.23166   7051.56
 1.24102   7054.93
 1.25038   7033.53
 1.25974   7045.16
 1.2691   7038.75
 1.27846   7070.13
 1.28782   7054.35
 1.29718   7060.88
 1.30654   7057.45
 1.3159   7043.89
 1.32526   7084.18
 1.33462   7103.4
 1.34398   7092.56
 1.35334   7096.2
 1.3627   7124.78
 1.37206   7123.71
 1.38142   7147.65
 1.39078   7172.3
 1.40014   7183.54
 1.4095   7222.44
 1.41886   7270.9
 1.42822   7324.21
 1.43758   7353.05
 1.44694   7392.79
 1.4563   7429.63
 1.46566   7504.22
 1.47502   7539.72
 1.48438   7582.05
 1.49374   7648.49
 1.5031   7680.62
 1.51246   7698.66
 1.52182   7704.23
 1.53118   7715.43
 1.54054   7705.99
 1.5499   7725.22
 1.55926   7674.52
 1.56862   7668.83
 1.57798   7693.67
 1.58734   7645.99
 1.5967   7650.88
 1.60606   7629.11
 1.61542   7670.25
 1.62478   7630.31
 1.63414   7629.01
 1.6435   7642.51
 1.65286   7661.28
 1.66222   7640.6
 1.67158   7672.89
 1.68094   7670.65
 1.6903   7666.82
 1.69966   7645.25
 1.70902   7642
 1.71838   7641.42
 1.72774   7665.8
 1.7371   7667.7
 1.74646   7673.49
 1.75582   7692.17
 1.76518   7725.49
 1.77454   7717.42
 1.7839   7760.75
 1.79326   7790.25
 1.80262   7815.59
 1.81198   7841.14
 1.82134   7866.2
 1.8307   7887.73
 1.84006   7925.05
 1.84942   7967.99
 1.85878   7989.42
 1.86814   8013.66
 1.8775   8057.42
 1.88686   8129.73
 1.89622   8177.01
 1.90558   8205.6
 1.91494   8249.61
 1.9243   8327.95
 1.93366   8340.19
 1.94302   8390.07
 1.95238   8469.2
 1.96174   8527.58
 1.9711   8648.22
 1.98046   8637.14
 1.98982   8638.26
 1.99918   8696.42
 2.00854   8753.52
 2.0179   8773.74
 2.02726   8825.39
 2.03662   8862.04
 2.04598   8959.31
 2.05534   8974.53
 2.0647   9047.57
 2.07406   9130.07
 2.08342   9263.58
 2.09278   9395.66
 2.10214   9600.54
 2.1115   9928.08
 2.12086   10491.7
 2.13022   11590.2
 2.13958   13586.3
 2.14894   16468.1
 2.1583   19535
 2.16766   22387
 2.17702   23916.8
 2.18638   23739.1
 2.19574   22065.2
 2.2051   19713
 2.21446   17669
 2.22382   16218.7
 2.23318   15246.4
 2.24254   14377.9
 2.2519   13313.6
 2.26126   12221.6
 2.27062   11318.7
 2.27998   10809
 2.28934   10548.1
 2.2987   10475.2
 2.30806   10442.8
 2.31742   10470.3
 2.32678   10475.3
 2.33614   10523.6
 2.3455   10575.5
 2.35486   10616.4
 2.36422   10684.9
 2.37358   10742.6
 2.38294   10799.2
 2.3923   10853.1
 2.40166   10934.9
 2.41102   10991.2
 2.42038   11067.1
 2.42974   11153.2
 2.4391   11217.8
 2.44846   11289
 2.45782   11374.9
 2.46718   11445.7
 2.47654   11490.5
 2.4859   11582.4
 2.49526   11654.4
 2.50462   11711.6
 2.51398   11792.4
 2.52334   11870.5
 2.5327   11926.1
 2.54206   12002.8
 2.55142   12065.2
 2.56078   12135
 2.57014   12191.4
 2.5795   12263.6
 2.58886   12288.5
 2.59822   12379.8
 2.60758   12432.1
 2.61694   12455.9
 2.6263   12520.7
 2.63566   12549
 2.64502   12566.1
 2.65438   12620.2
 2.66374   12656.9
 2.6731   12727.4
 2.68246   12708.1
 2.69182   12737.1
 2.70118   12796.5
 2.71054   12802.2
 2.7199   12782.3
 2.72926   12814.9
 2.73862   12803.5
 2.74798   12780.9
 2.75734   12758
 2.7667   12755.8
 2.77606   12736
 2.78542   12724.7
 2.79478   12706.9
 2.80414   12691.5
 2.8135   12644.1
 2.82286   12648
 2.83222   12606
 2.84158   12586
 2.85094   12544.4
 2.8603   12504.5
 2.86966   12475.3
 2.87902   12436.3
 2.88838   12403.9
 2.89774   12371.9
 2.9071   12345.4
 2.91646   12292
 2.92582   12244.9
 2.93518   12212.1
 2.94454   12186.1
 2.9539   12157.1
 2.96326   12098.1
 2.97262   12057.8
 2.98198   12012.8
 2.99134   11957.6
 3.0007   11884.9
 3.01006   11845.7
 3.01942   11792.4
 3.02878   11765.7
 3.03814   11679
 3.0475   11632.5
 3.05686   11566.4
 3.06622   11504.4
 3.07558   11466.3
 3.08494   11420.3
 3.0943   11360.4
 3.10366   11293.2
 3.11302   11283
 3.12238   11265.8
 3.13174   11199.8
 3.1411   11169.1
 3.15046   11101.8
 3.15982   11081.9
 3.16918   11046.4
 3.17854   11002.2
 3.1879   11003.4
 3.19726   10989.6
 3.20662   10942.2
 3.21598   10904.3
 3.22534   10867.3
 3.2347   10860.4
 3.24406   10809.1
 3.25342   10776.4
 3.26278   10766.2
 3.27214   10760.5
 3.2815   10719.9
 3.29086   10720.7
 3.30022   10709.2
 3.30958   10695.3
 3.31894   10673.8
 3.3283   10691.1
 3.33766   10670.1
 3.34702   10649.3
 3.35638   10624.5
 3.36574   10641.9
 3.3751   10642.2
 3.38446   10622.3
 3.39382   10632.1
 3.40318   10649.4
 3.41254   10651.4
 3.4219   10634.8
 3.43126   10640.6
 3.44062   10680.1
 3.44998   10694.3
 3.45934   10685.6
 3.4687   10695.4
 3.47806   10716
 3.48742   10715.3
 3.49678   10683.8
 3.50614   10705.7
 3.5155   10733.3
 3.52486   10696.5
 3.53422   10698.5
 3.54358   10742.3
 3.55294   10736.2
 3.5623   10714.4
 3.57166   10715.6
 3.58102   10763.8
 3.59038   10758.9
 3.59974   10738.6
 3.6091   10803
 3.61846   10864.2
 3.62782   10815.5
 3.63718   10791
 3.64654   10880.6
 3.6559   10929.6
 3.66526   10900.5
 3.67462   10926.3
 3.68398   11141.8
 3.69334   11144.6
 3.7027   11154.7
 3.71206   11192
 3.72142   11362.3
 3.73078   11262.3
 3.74014   11323.8
 3.7495   11392.5
 3.75886   11439.1
 3.76822   11600.7
 3.77758   11569.8
 3.78694   11699.5
 3.7963   11991
 3.80566   11877.1
 3.81502   11904.4
 3.82438   12427.7
 3.83374   12452.8
 3.8431   12668.8
 3.85246   13247.5
 3.86182   13667.3
 3.87118   13995.5
 3.88054   14692.2
 3.8899   15381
 3.89926   16607.5
 3.90862   18262.2
 3.91798   22621.1
 3.92734   32405.1
 3.9367   52533.8
 3.94606   73320.1
 3.95542   81049.7
 3.96478   94834.1
 3.97414   119008
 3.9835   100816
 3.99286   79313.6
 4.00222   46565.6
 4.01158   30858.9
 4.02094   20674.1
 4.0303   17454.8
 4.03966   15473.4
 4.04902   13765.6
 4.05838   12990.1
 4.06774   12588.7
 4.0771   12154.9
 4.08646   12093.1
 4.09582   11627.3
 4.10518   11402.6
 4.11454   11347.8
 4.1239   10912.5
 4.13326   10613.8
 4.14262   10651.1
 4.15198   10361.5
 4.16134   10117.3
 4.1707   9990.33
 4.18006   9913.49
 4.18942   9721.44
 4.19878   9509.18
 4.20814   9360.84
 4.2175   9362.6
 4.22686   9072.34
 4.23622   8926.93
 4.24558   8921.22
 4.25494   8791.1
 4.2643   8739.74
 4.27366   8711.56
 4.28302   8651.25
 4.29238   8698.73
 4.30174   8727.85
 4.3111   8753.36
 4.32046   8947.41
 4.32982   9008.5
 4.33918   9052.39
 4.34854   9190.92
 4.3579   9226.87
 4.36726   9086.33
 4.37662   8935.45
 4.38598   8758.92
 4.39534   8600.67
 4.4047   8435.95
 4.41406   8225.62
 4.42342   8094.32
 4.43278   8032.45
 4.44214   7882.45
 4.4515   7785.05
 4.46086   7775.03
 4.47022   7757.25
 4.47958   7672.95
 4.48894   7654.69
 4.4983   7571.73
 4.50766   7431.13
 4.51702   7253.8
 4.52638   7131.29
 4.53574   7062.72
 4.5451   6985.25
 4.55446   6925.71
 4.56382   6896.07
 4.57318   6879.56
 4.58254   6830.27
 4.5919   6802.32
 4.60126   6741.4
 4.61062   6737.32
 4.61998   6670.29
 4.62934   6667.48
 4.6387   6650.88
 4.64806   6622.04
 4.65742   6561.72
 4.66678   6572.92
 4.67614   6556.28
 4.6855   6538.56
 4.69486   6558.93
 4.70422   6607.02
 4.71358   6691.35
 4.72294   6860.24
 4.7323   7016.77
 4.74166   7201.42
 4.75102   7361.21
 4.76038   7555.81
 4.76974   7838.32
 4.7791   8235.11
 4.78846   8729
 4.79782   9137.64
 4.80718   9367.75
 4.81654   9215.83
 4.8259   8816.05
 4.83526   8280.63
 4.84462   7773.12
 4.85398   7361.8
 4.86334   7048.13
 4.8727   6914.14
 4.88206   6982.03
 4.89142   7190.08
 4.90078   7547.4
 4.91014   7944.34
 4.9195   8253.23
 4.92886   8441.75
 4.93822   8505.36
 4.94758   8488.28
 4.95694   8400.14
 4.9663   8279.89
 4.97566   8156.44
 4.98502   8006.51
 4.99438   7783.18
 5.00374   7524.43
 5.0131   7218.48
 5.02246   6961.93
 5.03182   6696.37
 5.04118   6506.09
 5.05054   6389.47
 5.0599   6336.65
 5.06926   6370.11
 5.07862   6483.9
 5.08798   6722.22
 5.09734   7007.61
 5.1067   7713.61
 5.11606   7602.7
 5.12542   8539.28
 5.13478   11084
 5.14414   12928.4
 5.1535   12086.9
 5.16286   9594.26
 5.17222   7584.67
 5.18158   6580.37
 5.19094   6583.08
 5.2003   6413.08
 5.20966   6190.76
 5.21902   6132.88
 5.22838   6031.32
 5.23774   5969.91
 5.2471   5926.47
 5.25646   5897.34
 5.26582   5882.4
 5.27518   5842.75
 5.28454   5812.68
 5.2939   5806.49
 5.30326   5825.51
 5.31262   5811.27
 5.32198   5787.24
 5.33134   5773.06
 5.3407   5801.66
 5.35006   5779.47
 5.35942   5769.17
 5.36878   5785.84
 5.37814   5820.53
 5.3875   5786.3
 5.39686   5805.22
 5.40622   5850.14
 5.41558   5874.41
 5.42494   5873.95
 5.4343   5930.84
 5.44366   5982.68
 5.45302   6044.88
 5.46238   6127.19
 5.47174   6266.9
 5.4811   6474.6
 5.49046   6737.1
 5.49982   7136.13
 5.50918   7812.68
 5.51854   8817.68
 5.5279   10230.6
 5.53726   12077.8
 5.54662   14091.7
 5.55598   15652.6
 5.56534   16170.2
 5.5747   15689.8
 5.58406   14515.5
 5.59342   13113.9
 5.60278   12169.2
 5.61214   10566.6
 5.6215   9505.8
 5.63086   8769.97
 5.64022   8128.46
 5.64958   7630.48
 5.65894   7228.16
 5.6683   6860.01
 5.67766   6559.9
 5.68702   6363.55
 5.69638   6225.05
 5.70574   6099.88
 5.7151   5978.12
 5.72446   5940.86
 5.73382   5933.49
 5.74318   5914.85
 5.75254   5901.33
 5.7619   5922.08
 5.77126   5909.78
 5.78062   5864.91
 5.78998   5819.43
 5.79934   5811.71
 5.8087   5812.58
 5.81806   5747.66
 5.82742   5762.88
 5.83678   5789.09
 5.84614   5802
 5.8555   5798.15
 5.86486   5857.17
 5.87422   5918.76
 5.88358   5990.47
 5.89294   6061.92
 5.9023   6181.02
 5.91166   6538.62
 5.92102   6894.41
 5.93038   7443.67
 5.93974   8080.97
 5.9491   8021.22
 5.95846   7461.91
 5.96782   7096.31
 5.97718   6887.08
 5.98654   6738.25
 5.9959   6663.03
 6.00526   6541.9
 6.01462   6457.23
 6.02398   6356.89
 6.03334   6207.26
 6.0427   6116.64
 6.05206   6042.16
 6.06142   5957.83
 6.07078   5877.83
 6.08014   5855.28
 6.0895   5820.27
 6.09886   5789.44
 6.10822   5764.2
 6.11758   5765.2
 6.12694   5750.93
 6.1363   5750.74
 6.14566   5723.46
 6.15502   5731.55
 6.16438   5742.8
 6.17374   5733.71
 6.1831   5737.24
 6.19246   5744.13
 6.20182   5758.95
 6.21118   5759.52
 6.22054   5755.44
 6.2299   5782.06
 6.23926   5773.12
 6.24862   5764.57
 6.25798   5780.34
 6.26734   5795.63
 6.2767   5815.48
 6.28606   5792.42
 6.29542   5812.63
 6.30478   5825.32
 6.31414   5830.57
 6.3235   5820.86
 6.33286   5846.97
 6.34222   5888.9
 6.35158   5880.43
 6.36094   5864.92
 6.3703   5864.26
 6.37966   5879.55
 6.38902   5913.05
 6.39838   5895.76
 6.40774   5937.75
 6.4171   5965.52
 6.42646   5972.72
 6.43582   5993.02
 6.44518   6037.87
 6.45454   6049.08
 6.4639   6074.34
 6.47326   6079.91
 6.48262   6108.86
 6.49198   6163.56
 6.50134   6145.81
 6.5107   6170.68
 6.52006   6211.34
 6.52942   6213.94
 6.53878   6250.82
 6.54814   6280.52
 6.5575   6321.39
 6.56686   6325.64
 6.57622   6358.23
 6.58558   6407.19
 6.59494   6473.93
 6.6043   6549.53
 6.61366   6567.56
 6.62302   6630.97
 6.63238   6712.19
 6.64174   6722.26
 6.6511   6799.57
 6.66046   6902.23
 6.66982   6899.35
 6.67918   6942.17
 6.68854   6956.84
 6.6979   6987.23
 6.70726   7042.93
 6.71662   7096.29
 6.72598   7102.5
 6.73534   7242.32
 6.7447   7274.75
 6.75406   7303.78
 6.76342   7437.96
 6.77278   7604.3
 6.78214   7681.34
 6.7915   7813.86
 6.80086   7931.96
 6.81022   8104.21
 6.81958   8358
 6.82894   8734.06
 6.8383   9250.9
 6.84766   11622.7
 6.85702   14625
 6.86638   25976.2
 6.87574   38286.9
 6.8851   32718.3
 6.89446   19536
 6.90382   12261.7
 6.91318   10462.7
 6.92254   9750.77
 6.9319   9515.75
 6.94126   9265.07
 6.95062   9331.09
 6.95998   9266.61
 6.96934   9052.01
 6.9787   9189.83
 6.98806   9185.55
 6.99742   9081.82
 7.00678   9104.37
 7.01614   8973.87
 7.0255   8841.8
 7.03486   8696.88
 7.04422   8404.2
 7.05358   8234.48
 7.06294   8133.19
 7.0723   7893.41
 7.08166   7635.22
 7.09102   7423.52
 7.10038   7346.55
 7.10974   7202.04
 7.1191   7145.94
 7.12846   7079.95
 7.13782   7044.12
 7.14718   6989.76
 7.15654   6951.23
 7.1659   6928.12
 7.17526   6934.37
 7.18462   6863.3
 7.19398   6841.83
 7.20334   6802.25
 7.2127   6786.7
 7.22206   6746.2
 7.23142   6721.6
 7.24078   6713.54
 7.25014   6749.08
 7.2595   6718.53
 7.26886   6717.7
 7.27822   6717.35
 7.28758   6729.55
 7.29694   6686.21
 7.3063   6690.5
 7.31566   6700.33
 7.32502   6731.12
 7.33438   6735.67
 7.34374   6780.82
 7.3531   6795.83
 7.36246   6815.44
 7.37182   6831.32
 7.38118   6811.62
 7.39054   6813.57
 7.3999   6818.12
 7.40926   6823.02
 7.41862   6816.84
 7.42798   6835.33
 7.43734   6854.65
 7.4467   6869.29
 7.45606   6901.43
 7.46542   6953.29
 7.47478   7000.62
 7.48414   7059
 7.4935   7116.66
 7.50286   7231.13
 7.51222   7343.31
 7.52158   7423.24
 7.53094   7549.09
 7.5403   7670.51
 7.54966   7760.04
 7.55902   7838.7
 7.56838   7889.85
 7.57774   7926.54
 7.5871   7902.71
 7.59646   7853.38
 7.60582   7718.64
 7.61518   7515.97
 7.62454   7268.27
 7.6339   7014.22
 7.64326   6812.23
 7.65262   6645.96
 7.66198   6535.46
 7.67134   6469.99
 7.6807   6418.49
 7.69006   6372.12
 7.69942   6326.44
 7.70878   6319.05
 7.71814   6280.81
 7.7275   6279.42
 7.73686   6272.28
 7.74622   6273.66
 7.75558   6264.29
 7.76494   6250.25
 7.7743   6302.12
 7.78366   6324.2
 7.79302   6328.98
 7.80238   6331.35
 7.81174   6349.99
 7.8211   6376.59
 7.83046   6396.98
 7.83982   6420.82
 7.84918   6433.45
 7.85854   6512.09
 7.8679   6464.26
 7.87726   6499.27
 7.88662   6651.37
 7.89598   6553.5
 7.90534   6699.39
 7.9147   7837.29
 7.92406   9690.54
 7.93342   9632.82
 7.94278   15353.3
 7.95214   13882.8
 7.9615   10893.1
 7.97086   7773.56
 7.98022   6974.59
 7.98958   6711.63
 7.99894   6485.66
 8.0083   6366.41
 8.01766   6380.9
 8.02702   6280.31
 8.03638   6252.44
 8.04574   6203.37
 8.0551   6151.61
 8.06446   6169.19
 8.07382   6246.87
 8.08318   6314
 8.09254   6421.86
 8.1019   6522.73
 8.11126   6575.76
 8.12062   6619.1
 8.12998   6650.16
 8.13934   6640.79
 8.1487   6678.94
 8.15806   6700.79
 8.16742   6754.71
 8.17678   6840.17
 8.18614   6955.24
 8.1955   7087.07
 8.20486   7241.41
 8.21422   7390.04
 8.22358   7508.29
 8.23294   7569.38
 8.2423   7546.6
 8.25166   7403.48
 8.26102   7224.82
 8.27038   6985.05
 8.27974   6758.41
 8.2891   6525.5
 8.29846   6319.68
 8.30782   6128.28
 8.31718   5957.62
 8.32654   5835.39
 8.3359   5736.94
 8.34526   5668.25
 8.35462   5669.96
 8.36398   5724.16
 8.37334   5958.38
 8.3827   6614.38
 8.39206   7777.65
 8.40142   9244.36
 8.41078   9750.01
 8.42014   8696.26
 8.4295   7258.15
 8.43886   6551.3
 8.44822   6242.32
 8.45758   6209.12
 8.46694   6237.82
 8.4763   6286.23
 8.48566   6353.27
 8.49502   6378.81
 8.50438   6380.4
 8.51374   6378.71
 8.5231   6367.94
 8.53246   6335.31
 8.54182   6279.13
 8.55118   6235.17
 8.56054   6164.8
 8.5699   6071.16
 8.57926   5995.88
 8.58862   5905.16
 8.59798   5813.25
 8.60734   5757.09
 8.6167   5691.23
 8.62606   5627.97
 8.63542   5579.27
 8.64478   5544.96
 8.65414   5536
 8.6635   5513.96
 8.67286   5505.88
 8.68222   5517.64
 8.69158   5528.48
 8.70094   5533.23
 8.7103   5542.45
 8.71966   5557.04
 8.72902   5552.82
 8.73838   5566.1
 8.74774   5569.28
 8.7571   5571.98
 8.76646   5567.17
 8.77582   5555
 8.78518   5551.19
 8.79454   5536.86
 8.8039   5517.55
 8.81326   5501.17
 8.82262   5486.42
 8.83198   5529.12
 8.84134   5679.15
 8.8507   6219.81
 8.86006   6823.59
 8.86942   7385.78
 8.87878   6351.69
 8.88814   5968.34
 8.8975   5399.26
 8.90686   5140.45
 8.91622   5062.36
 8.92558   5048.23
 8.93494   5021.92
 8.9443   5030.58
 8.95366   5026.13
 8.96302   5014.21
 8.97238   5013.81
 8.98174   5014.84
 8.9911   5000.39
 9.00046   4998.02
 9.00982   4984.93
 9.01918   4968.47
 9.02854   4942.51
 9.0379   4915.45
 9.04726   4908.06
 9.05662   4892.77
 9.06598   4889.56
 9.07534   4892.76
 9.0847   4879.24
 9.09406   4883.3
 9.10342   4882.3
 9.11278   4895.97
 9.12214   4895.89
 9.1315   4918.51
 9.14086   4937.87
 9.15022   4935.55
 9.15958   4956.27
 9.16894   4975.32
 9.1783   4989.11
 9.18766   5002.28
 9.19702   5040.04
 9.20638   5071.43
 9.21574   5134.95
 9.2251   5180.74
 9.23446   5244.64
 9.24382   5324.72
 9.25318   5423.33
 9.26254   5515.93
 9.2719   5597.05
 9.28126   5669.25
 9.29062   5705.73
 9.29998   5731.12
 9.30934   5729.84
 9.3187   5719.72
 9.32806   5714.82
 9.33742   5687.24
 9.34678   5649.19
 9.35614   5622.9
 9.3655   5602.89
 9.37486   5545.13
 9.38422   5501.46
 9.39358   5457.16
 9.40294   5413.62
 9.4123   5385.49
 9.42166   5344.17
 9.43102   5306.06
 9.44038   5304.57
 9.44974   5290.23
 9.4591   5286.14
 9.46846   5308.48
 9.47782   5333.75
 9.48718   5342.1
 9.49654   5349.54
 9.5059   5341.55
 9.51526   5342.23
 9.52462   5314.11
 9.53398   5300.16
 9.54334   5295.67
 9.5527   5303.64
 9.56206   5294.97
 9.57142   5288.58
 9.58078   5288.84
 9.59014   5302.03
 9.5995   5290.2
 9.60886   5291.55
 9.61822   5273.11
 9.62758   5253.34
 9.63694   5239.6
 9.6463   5213.57
 9.65566   5189.36
 9.66502   5180.33
 9.67438   5175.61
 9.68374   5205.17
 9.6931   5285.76
 9.70246   5749.19
 9.71182   5792.15
 9.72118   6060.7
 9.73054   5893.26
 9.7399   5497.88
 9.74926   5198.43
 9.75862   5120.53
 9.76798   5114.35
 9.77734   5125.03
 9.7867   5162.85
 9.79606   5223.46
 9.80542   5338.15
 9.81478   5512.05
 9.82414   5847.68
 9.8335   6644.68
 9.84286   7984.97
 9.85222   10043
 9.86158   11872.2
 9.87094   11338.6
 9.8803   9153.98
 9.88966   7207.79
 9.89902   6337.36
 9.90838   5848.52
 9.91774   5649.09
 9.9271   5570.23
 9.93646   5521.32
 9.94582   5480.44
 9.95518   5450.36
 9.96454   5439.78
 9.9739   5414.15
 9.98326   5387.09
 9.99262   5371.03
 10.002   5363.61
 10.0113   5327.64
 10.0207   5296.68
 10.0301   5260.94
 10.0394   5228.12
 10.0488   5197.78
 10.0581   5176.3
 10.0675   5156.38
 10.0769   5152.14
 10.0862   5134.79
 10.0956   5132.14
 10.1049   5127.21
 10.1143   5128.22
 10.1237   5134.38
 10.133   5142.15
 10.1424   5153.71
 10.1517   5157.4
 10.1611   5169.05
 10.1705   5189.17
 10.1798   5188.27
 10.1892   5171.34
 10.1985   5187.14
 10.2079   5193.89
 10.2173   5190.81
 10.2266   5191.16
 10.236   5203.66
 10.2453   5212.92
 10.2547   5257.23
 10.2641   5348.02
 10.2734   5519.15
 10.2828   5403.31
 10.2921   5686.36
 10.3015   5836.4
 10.3109   5753.82
 10.3202   5556.08
 10.3296   5753.23
 10.3389   5357.83
 10.3483   5222.64
 10.3577   5152.58
 10.367   5142.92
 10.3764   5124.53
 10.3857   5115.05
 10.3951   5113.43
 10.4045   5139.39
 10.4138   5117.42
 10.4232   5130.61
 10.4325   5126.4
 10.4419   5176.86
 10.4513   5178.39
 10.4606   5279.45
 10.47   5317.5
 10.4793   5416.38
 10.4887   5579.16
 10.4981   5949.8
 10.5074   5879.75
 10.5168   5820.8
 10.5261   5498.4
 10.5355   5302.81
 10.5449   5203.99
 10.5542   5197.3
 10.5636   5167.65
 10.5729   5118.67
 10.5823   5092.71
 10.5917   5101.73
 10.601   5091.23
 10.6104   5054.41
 10.6197   5050.75
 10.6291   5061.16
 10.6385   5044.08
 10.6478   5020.73
 10.6572   5027.45
 10.6665   5022.16
 10.6759   5004.91
 10.6853   4994.57
 10.6946   5001.84
 10.704   5017.08
 10.7133   5020.54
 10.7227   5027.33
 10.7321   5046.74
 10.7414   5051.36
 10.7508   5072.33
 10.7601   5061.96
 10.7695   5054.94
 10.7789   5063.76
 10.7882   5063.57
 10.7976   5040.31
 10.8069   5016.31
 10.8163   5011.48
 10.8257   4999.04
 10.835   4991.08
 10.8444   4987.31
 10.8537   4969.16
 10.8631   4971.6
 10.8725   4953.59
 10.8818   4936.64
 10.8912   4914.03
 10.9005   4895.63
 10.9099   4873.12
 10.9193   4851.38
 10.9286   4832.59
 10.938   4819.09
 10.9473   4799.07
 10.9567   4794.05
 10.9661   4778.12
 10.9754   4769.92
 10.9848   4753.72
 10.9941   4749.82
 11.0035   4749.69
 11.0129   4756.37
 11.0222   4759.82
 11.0316   4760.86
 11.0409   4766.38
 11.0503   4782.22
 11.0597   4802.13
 11.069   4809.17
 11.0784   4820.87
 11.0877   4863.45
 11.0971   4911.79
 11.1065   4947.66
 11.1158   4979.66
 11.1252   5014.14
 11.1345   5026.37
 11.1439   5023.92
 11.1533   5014.52
 11.1626   4967.82
 11.172   4955.17
 11.1813   4922.4
 11.1907   4880.33
 11.2001   4853.28
 11.2094   4865.07
 11.2188   4893.01
 11.2281   4816.11
 11.2375   4819.57
 11.2469   4789.78
 11.2562   4784.67
 11.2656   4751.9
 11.2749   4724.85
 11.2843   4701.39
 11.2937   4712.87
 11.303   4689.11
 11.3124   4667.51
 11.3217   4654.11
 11.3311   4637.88
 11.3405   4616.18
 11.3498   4602.78
 11.3592   4586.12
 11.3685   4573.88
 11.3779   4562.16
 11.3873   4546.07
 11.3966   4523.08
 11.406   4522.8
 11.4153   4517.37
 11.4247   4512.6
 11.4341   4498.42
 11.4434   4494.02
 11.4528   4500.38
 11.4621   4481.62
 11.4715   4475.47
 11.4809   4475.85
 11.4902   4474.56
 11.4996   4461.18
 11.5089   4449.71
 11.5183   4438.75
 11.5277   4439.24
 11.537   4410.67
 11.5464   4404.44
 11.5557   4390.27
 11.5651   4386.52
 11.5745   4380.91
 11.5838   4366.92
 11.5932   4355.59
 11.6025   4358.87
 11.6119   4361.69
 11.6213   4367.46
 11.6306   4343.13
 11.64   4346.6
 11.6493   4335.8
 11.6587   4323.94
 11.6681   4316.13
 11.6774   4317.27
 11.6868   4298.87
 11.6961   4301.52
 11.7055   4296.88
 11.7149   4287.2
 11.7242   4294.84
 11.7336   4295.27
 11.7429   4289.32
 11.7523   4287.04
 11.7617   4287.36
 11.771   4289.32
 11.7804   4302.16
 11.7897   4296.53
 11.7991   4304.91
 11.8085   4316.49
 11.8178   4314.89
 11.8272   4315.69
 11.8365   4323.82
 11.8459   4326.9
 11.8553   4352.48
 11.8646   4377.23
 11.874   4418.62
 11.8833   4449.73
 11.8927   4540.92
 11.9021   4646.66
 11.9114   4638.58
 11.9208   4540.27
 11.9301   4494.38
 11.9395   4465.2
 11.9489   4421.7
 11.9582   4411.64
 11.9676   4425.69
 11.9769   4435.58
 11.9863   4443.11
 11.9957   4466.57
 12.005   4474.74
 12.0144   4473
 12.0237   4475.2
 12.0331   4472.51
 12.0425   4479.48
 12.0518   4487.19
 12.0612   4471.85
 12.0705   4478.82
 12.0799   4482.06
 12.0893   4485.12
 12.0986   4486.06
 12.108   4470.43
 12.1173   4460.17
 12.1267   4432.46
 12.1361   4393.36
 12.1454   4347.17
 12.1548   4310.67
 12.1641   4265.02
 12.1735   4227.21
 12.1829   4183.94
 12.1922   4161.62
 12.2016   4144.84
 12.2109   4126.47
 12.2203   4097.07
 12.2297   4087.73
 12.239   4085.25
 12.2484   4078.49
 12.2577   4070.11
 12.2671   4059.13
 12.2765   4057.69
 12.2858   4060.67
 12.2952   4052.85
 12.3045   4050.93
 12.3139   4059.71
 12.3233   4061.75
 12.3326   4056.51
 12.342   4060.63
 12.3513   4058.44
 12.3607   4072.29
 12.3701   4088.25
 12.3794   4087.31
 12.3888   4100.86
 12.3981   4100.38
 12.4075   4112.41
 12.4169   4117.45
 12.4262   4123.16
 12.4356   4132.3
 12.4449   4147.63
 12.4543   4159.71
 12.4637   4166.7
 12.473   4169.02
 12.4824   4190.29
 12.4917   4192.7
 12.5011   4184.63
 12.5105   4186.3
 12.5198   4185.38
 12.5292   4176.41
 12.5385   4171.76
 12.5479   4189.7
 12.5573   4212.66
 12.5666   4204.22
 12.576   4213.69
 12.5853   4204.21
 12.5947   4204.74
 12.6041   4223.66
 12.6134   4230.73
 12.6228   4233.43
 12.6321   4244.3
 12.6415   4240.91
 12.6509   4237.23
 12.6602   4224.26
 12.6696   4203.47
 12.6789   4189.05
 12.6883   4181.21
 12.6977   4161.2