File: docs/GuiliangJun25_tutorial_output/integrals/MA2b-00001_om.chi
MA2b-00001.tif Azm= 0.00
2-Theta Angle (Degrees)
Intensity
       2500
 1.00702   7843.57
 1.01638   7790.83
 1.02574   7744.8
 1.0351   7659.02
 1.04446   7597.44
 1.05382   7582.61
 1.06318   7483.93
 1.07254   7488.44
 1.0819   7432.07
 1.09126   7411.97
 1.10062   7368.08
 1.10998   7327.17
 1.11934   7293.86
 1.1287   7257.24
 1.13806   7236.14
 1.14742   7217.83
 1.15678   7193.95
 1.16614   7165.12
 1.1755   7136.31
 1.18486   7150.17
 1.19422   7107.07
 1.20358   7098.43
 1.21294   7079.34
 1.2223   7107.99
 1.23166   7051.56
 1.24102   7054.93
 1.25038   7033.53
 1.25974   7040.43
 1.2691   7038.75
 1.27846   7070.13
 1.28782   7054.35
 1.29718   7060.88
 1.30654   7064.61
 1.3159   7043.89
 1.32526   7061.21
 1.33462   7070.44
 1.34398   7083.13
 1.35334   7085.13
 1.3627   7120.42
 1.37206   7106.85
 1.38142   7134.77
 1.39078   7152.57
 1.40014   7173.64
 1.4095   7211.67
 1.41886   7254
 1.42822   7319.88
 1.43758   7337.78
 1.44694   7373
 1.4563   7420.56
 1.46566   7493.39
 1.47502   7524.16
 1.48438   7570.98
 1.49374   7635.12
 1.5031   7663.34
 1.51246   7685.78
 1.52182   7691.9
 1.53118   7708.8
 1.54054   7690.92
 1.5499   7710.39
 1.55926   7659.89
 1.56862   7657.64
 1.57798   7673.75
 1.58734   7640.27
 1.5967   7648.19
 1.60606   7626.03
 1.61542   7665.73
 1.62478   7621.59
 1.63414   7617.47
 1.6435   7630.54
 1.65286   7647.24
 1.66222   7621.81
 1.67158   7651.93
 1.68094   7652.48
 1.6903   7650.47
 1.69966   7641.66
 1.70902   7644.46
 1.71838   7650.27
 1.72774   7665.8
 1.7371   7667.7
 1.74646   7673.49
 1.75582   7699.9
 1.76518   7728.15
 1.77454   7714.79
 1.7839   7760.75
 1.79326   7790.25
 1.80262   7815.59
 1.81198   7841.14
 1.82134   7862.05
 1.8307   7881.43
 1.84006   7919.62
 1.84942   7965.55
 1.85878   7980.47
 1.86814   8003.01
 1.8775   8046.87
 1.88686   8122.68
 1.89622   8161.54
 1.90558   8193.07
 1.91494   8246.52
 1.9243   8317.39
 1.93366   8328.83
 1.94302   8387.27
 1.95238   8456.5
 1.96174   8499.53
 1.9711   8540.32
 1.98046   8582.58
 1.98982   8631.27
 1.99918   8690.53
 2.00854   8744.24
 2.0179   8765.28
 2.02726   8820.45
 2.03662   8860.43
 2.04598   8947.5
 2.05534   8967.55
 2.0647   9041.56
 2.07406   9122.31
 2.08342   9253.7
 2.09278   9388.58
 2.10214   9590.4
 2.1115   9920.18
 2.12086   10486.5
 2.13022   11571.6
 2.13958   13586.3
 2.14894   16468.1
 2.1583   19535
 2.16766   22387
 2.17702   23916.8
 2.18638   23739.1
 2.19574   22065.2
 2.2051   19713
 2.21446   17669
 2.22382   16218.7
 2.23318   15246.4
 2.24254   14377.9
 2.2519   13313.6
 2.26126   12212.9
 2.27062   11314.5
 2.27998   10803.5
 2.28934   10538.1
 2.2987   10465.9
 2.30806   10436
 2.31742   10465.7
 2.32678   10473
 2.33614   10517.9
 2.3455   10569.2
 2.35486   10611.9
 2.36422   10680.5
 2.37358   10735
 2.38294   10795.6
 2.3923   10847
 2.40166   10924.5
 2.41102   10986.6
 2.42038   11064.3
 2.42974   11145.8
 2.4391   11217.3
 2.44846   11281.3
 2.45782   11365.3
 2.46718   11443
 2.47654   11487.6
 2.4859   11574.2
 2.49526   11647.4
 2.50462   11705.1
 2.51398   11786.4
 2.52334   11865.6
 2.5327   11922
 2.54206   11996.2
 2.55142   12057.6
 2.56078   12128.8
 2.57014   12180.5
 2.5795   12255
 2.58886   12284.9
 2.59822   12375.9
 2.60758   12425.1
 2.61694   12450.6
 2.6263   12514.4
 2.63566   12544.6
 2.64502   12555.1
 2.65438   12608.3
 2.66374   12649.3
 2.6731   12684.9
 2.68246   12684.6
 2.69182   12710.4
 2.70118   12738.1
 2.71054   12744
 2.7199   12747.8
 2.72926   12770.7
 2.73862   12765.9
 2.74798   12751.3
 2.75734   12734.1
 2.7667   12721.9
 2.77606   12707.6
 2.78542   12691.3
 2.79478   12672.7
 2.80414   12664.9
 2.8135   12618.6
 2.82286   12619.2
 2.83222   12584.7
 2.84158   12564.2
 2.85094   12520.2
 2.8603   12484.3
 2.86966   12456.1
 2.87902   12413.3
 2.88838   12384.6
 2.89774   12352.8
 2.9071   12326.5
 2.91646   12280.7
 2.92582   12223.2
 2.93518   12197
 2.94454   12167.3
 2.9539   12139.2
 2.96326   12086.5
 2.97262   12038.5
 2.98198   11993.6
 2.99134   11950.4
 3.0007   11864.4
 3.01006   11830.1
 3.01942   11780.3
 3.02878   11745.8
 3.03814   11661.9
 3.0475   11610.6
 3.05686   11548.7
 3.06622   11486.9
 3.07558   11444.5
 3.08494   11401.9
 3.0943   11340.1
 3.10366   11281.4
 3.11302   11265.1
 3.12238   11245.1
 3.13174   11178.8
 3.1411   11150.7
 3.15046   11089.4
 3.15982   11067.9
 3.16918   11029.1
 3.17854   10986.5
 3.1879   10987.8
 3.19726   10969.5
 3.20662   10928.4
 3.21598   10891.8
 3.22534   10845.7
 3.2347   10849.6
 3.24406   10793.2
 3.25342   10757
 3.26278   10748.9
 3.27214   10738.4
 3.2815   10706.6
 3.29086   10702.1
 3.30022   10690.1
 3.30958   10678.1
 3.31894   10656.5
 3.3283   10671.5
 3.33766   10649.7
 3.34702   10631.2
 3.35638   10611.5
 3.36574   10622
 3.3751   10623
 3.38446   10603.6
 3.39382   10611.3
 3.40318   10629.7
 3.41254   10620.6
 3.4219   10602.1
 3.43126   10610.5
 3.44062   10656
 3.44998   10650.3
 3.45934   10635.8
 3.4687   10636.6
 3.47806   10646.4
 3.48742   10649.1
 3.49678   10610.9
 3.50614   10618.6
 3.5155   10652
 3.52486   10621.6
 3.53422   10616.5
 3.54358   10653
 3.55294   10649.4
 3.5623   10614.1
 3.57166   10609.8
 3.58102   10643.8
 3.59038   10608
 3.59974   10581.3
 3.6091   10625.3
 3.61846   10670.1
 3.62782   10590.2
 3.63718   10525.8
 3.64654   10576
 3.6559   10584.2
 3.66526   10504.4
 3.67462   10424.4
 3.68398   10493.8
 3.69334   10462.1
 3.7027   10344.9
 3.71206   10284.2
 3.72142   10285.4
 3.73078   10182.4
 3.74014   10078
 3.7495   10023.3
 3.75886   9953.88
 3.76822   9871.13
 3.77758   9751.91
 3.78694   9771.6
 3.7963   9754.84
 3.80566   9553.77
 3.81502   9481.64
 3.82438   9527.08
 3.83374   9444.31
 3.8431   9277.27
 3.85246   9303.17
 3.86182   9256.96
 3.87118   9201.86
 3.88054   9066.86
 3.8899   9023.16
 3.89926   8995.16
 3.90862   8880.44
 3.91798   8816.28
 3.92734   8835.01
 3.9367   8731.44
 3.94606   8677.7
 3.95542   8677.68
 3.96478   8589.09
 3.97414   8543.49
 3.9835   8520.37
 3.99286   8447.75
 4.00222   8479.06
 4.01158   8410.15
 4.02094   8302.46
 4.0303   8333.74
 4.03966   8342.96
 4.04902   8247.83
 4.05838   8197.89
 4.06774   8194.02
 4.0771   8117.51
 4.08646   8082.11
 4.09582   8023.56
 4.10518   8049.83
 4.11454   8070.9
 4.1239   7945.9
 4.13326   7930.61
 4.14262   7948.9
 4.15198   7895.52
 4.16134   7807.77
 4.1707   7797.08
 4.18006   7852.21
 4.18942   7830.6
 4.19878   7725.22
 4.20814   7748.84
 4.2175   7888.41
 4.22686   7742.29
 4.23622   7664.34
 4.24558   7723.41
 4.25494   7778.06
 4.2643   7755.81
 4.27366   7829.21
 4.28302   7954.36
 4.29238   8080.06
 4.30174   8158.96
 4.3111   8272.38
 4.32046   8470.05
 4.32982   8624.9
 4.33918   8709.46
 4.34854   8855.54
 4.3579   8971.82
 4.36726   8887.36
 4.37662   8771.89
 4.38598   8648.38
 4.39534   8506.8
 4.4047   8355.85
 4.41406   8181.11
 4.42342   8052.25
 4.43278   8004.83
 4.44214   7872.7
 4.4515   7774.88
 4.46086   7764.53
 4.47022   7753.57
 4.47958   7669.42
 4.48894   7650.88
 4.4983   7571.73
 4.50766   7427.79
 4.51702   7251.15
 4.52638   7124.84
 4.53574   7059.25
 4.5451   6979.44
 4.55446   6922.9
 4.56382   6893.45
 4.57318   6876.8
 4.58254   6830.27
 4.5919   6802.32
 4.60126   6738.95
 4.61062   6735.06
 4.61998   6670.29
 4.62934   6665.25
 4.6387   6648.89
 4.64806   6622.04
 4.65742   6561.72
 4.66678   6570.66
 4.67614   6554.62
 4.6855   6538.56
 4.69486   6558.93
 4.70422   6607.02
 4.71358   6689.86
 4.72294   6859.65
 4.7323   7016.77
 4.74166   7201.42
 4.75102   7359.06
 4.76038   7555.81
 4.76974   7835.08
 4.7791   8231.19
 4.78846   8724.93
 4.79782   9134.32
 4.80718   9363.55
 4.81654   9214.16
 4.8259   8811.41
 4.83526   8280.63
 4.84462   7773.12
 4.85398   7357.91
 4.86334   7048.13
 4.8727   6915.67
 4.88206   6982.03
 4.89142   7190.08
 4.90078   7544.07
 4.91014   7940.37
 4.9195   8247.51
 4.92886   8441.75
 4.93822   8504.01
 4.94758   8485.52
 4.95694   8393.26
 4.9663   8278.51
 4.97566   8150.86
 4.98502   8006.51
 4.99438   7781.53
 5.00374   7517.91
 5.0131   7217.88
 5.02246   6961.93
 5.03182   6695.1
 5.04118   6504.43
 5.05054   6390.4
 5.0599   6337.37
 5.06926   6368.99
 5.07862   6483.9
 5.08798   6722.22
 5.09734   6955.58
 5.1067   7713.61
 5.11606   7602.7
 5.12542   8438.06
 5.13478   11058.1
 5.14414   12928.4
 5.1535   11850.7
 5.16286   9594.26
 5.17222   7584.67
 5.18158   6580.37
 5.19094   6583.08
 5.2003   6413.08
 5.20966   6189.12
 5.21902   6122.76
 5.22838   6011.27
 5.23774   5943.9
 5.2471   5919.12
 5.25646   5872.81
 5.26582   5849.14
 5.27518   5803.47
 5.28454   5792.63
 5.2939   5780.62
 5.30326   5767.46
 5.31262   5770.74
 5.32198   5766.74
 5.33134   5743.18
 5.3407   5746.53
 5.35006   5746.77
 5.35942   5748.99
 5.36878   5750.49
 5.37814   5762.87
 5.3875   5762.59
 5.39686   5777.65
 5.40622   5813.18
 5.41558   5823.48
 5.42494   5859.22
 5.4343   5910.31
 5.44366   5943.57
 5.45302   6002.32
 5.46238   6111.22
 5.47174   6243.54
 5.4811   6440.21
 5.49046   6695.99
 5.49982   7114.49
 5.50918   7812.68
 5.51854   8817.68
 5.5279   10230.6
 5.53726   12077.8
 5.54662   14091.7
 5.55598   15622.8
 5.56534   16138.8
 5.5747   15655.1
 5.58406   14435.6
 5.59342   12957.9
 5.60278   11548.3
 5.61214   10369.9
 5.6215   9453.93
 5.63086   8719.17
 5.64022   8119.37
 5.64958   7624.05
 5.65894   7200.76
 5.6683   6824.65
 5.67766   6558.26
 5.68702   6350.52
 5.69638   6190.57
 5.70574   6068.93
 5.7151   5968.91
 5.72446   5926.12
 5.73382   5893.06
 5.74318   5888.05
 5.75254   5893.08
 5.7619   5900.62
 5.77126   5864.4
 5.78062   5841.96
 5.78998   5805.48
 5.79934   5787.81
 5.8087   5773.56
 5.81806   5738.8
 5.82742   5752.37
 5.83678   5759.92
 5.84614   5768.09
 5.8555   5792.99
 5.86486   5845.66
 5.87422   5898.08
 5.88358   5975.29
 5.89294   6060.15
 5.9023   6175.19
 5.91166   6538.62
 5.92102   6891.43
 5.93038   7197.14
 5.93974   7951.3
 5.9491   7904.64
 5.95846   7288.55
 5.96782   7093.27
 5.97718   6887.08
 5.98654   6731.35
 5.9959   6661.86
 6.00526   6537.19
 6.01462   6444.47
 6.02398   6330.15
 6.03334   6194.64
 6.0427   6099.18
 6.05206   6025.14
 6.06142   5954.62
 6.07078   5874.5
 6.08014   5853.43
 6.0895   5820.27
 6.09886   5789.44
 6.10822   5763.03
 6.11758   5764.02
 6.12694   5750.93
 6.1363   5750.74
 6.14566   5723.46
 6.15502   5731.55
 6.16438   5742.8
 6.17374   5733.71
 6.1831   5737.24
 6.19246   5744.13
 6.20182   5758.95
 6.21118   5759.52
 6.22054   5754.02
 6.2299   5782.06
 6.23926   5771.63
 6.24862   5761.59
 6.25798   5775.99
 6.26734   5795.63
 6.2767   5813.93
 6.28606   5790.13
 6.29542   5804.01
 6.30478   5817.52
 6.31414   5823.1
 6.3235   5811.76
 6.33286   5839.64
 6.34222   5875.65
 6.35158   5863.81
 6.36094   5848.45
 6.3703   5841.03
 6.37966   5849.63
 6.38902   5877.42
 6.39838   5856.81
 6.40774   5894.84
 6.4171   5910.68
 6.42646   5914.01
 6.43582   5928.72
 6.44518   5957.37
 6.45454   5926.71
 6.4639   5932.45
 6.47326   5905.73
 6.48262   5927.33
 6.49198   5949.01
 6.50134   5937.08
 6.5107   5943.3
 6.52006   5991.17
 6.52942   5982.92
 6.53878   6012.55
 6.54814   6043.65
 6.5575   6068.01
 6.56686   6063.32
 6.57622   6068.91
 6.58558   6098.38
 6.59494   6122.75
 6.6043   6137.37
 6.61366   6132.2
 6.62302   6154.22
 6.63238   6170.89
 6.64174   6159.74
 6.6511   6204.18
 6.66046   6255.88
 6.66982   6258.33
 6.67918   6274.91
 6.68854   6278.03
 6.6979   6302.95
 6.70726   6342.5
 6.71662   6360.18
 6.72598   6390.98
 6.73534   6470
 6.7447   6472.73
 6.75406   6495.5
 6.76342   6511.27
 6.77278   6597.65
 6.78214   6576.31
 6.7915   6589.41
 6.80086   6590.89
 6.81022   6632.09
 6.81958   6640.23
 6.82894   6636.9
 6.8383   6683.63
 6.84766   6788.16
 6.85702   6788.38
 6.86638   6886.2
 6.87574   6973.09
 6.8851   7046.73
 6.89446   7139.41
 6.90382   7251.35
 6.91318   7355.55
 6.92254   7507.43
 6.9319   7618.71
 6.94126   7664.66
 6.95062   7793.12
 6.95998   7924.1
 6.96934   7929.4
 6.9787   8037.4
 6.98806   8111.99
 6.99742   8140.04
 7.00678   8201.49
 7.01614   8189.07
 7.0255   8160.62
 7.03486   8049.67
 7.04422   7881.58
 7.05358   7735.47
 7.06294   7629.76
 7.0723   7451.85
 7.08166   7230.98
 7.09102   6999.91
 7.10038   6921.05
 7.10974   6790.27
 7.1191   6736.73
 7.12846   6697.59
 7.13782   6652.62
 7.14718   6614.42
 7.15654   6598.65
 7.1659   6561.6
 7.17526   6591.7
 7.18462   6554.23
 7.19398   6546.6
 7.20334   6550.75
 7.2127   6550.63
 7.22206   6506.37
 7.23142   6508.57
 7.24078   6512
 7.25014   6541.29
 7.2595   6533.56
 7.26886   6544.85
 7.27822   6553.87
 7.28758   6563.53
 7.29694   6535.68
 7.3063   6553.03
 7.31566   6569.96
 7.32502   6620.37
 7.33438   6632.77
 7.34374   6690.82
 7.3531   6717.87
 7.36246   6749.33
 7.37182   6780.87
 7.38118   6780.82
 7.39054   6787.17
 7.3999   6799.84
 7.40926   6803.36
 7.41862   6810.11
 7.42798   6831.55
 7.43734   6850.61
 7.4467   6867.22
 7.45606   6900.45
 7.46542   6953.29
 7.47478   7000.59
 7.48414   7059
 7.4935   7116.66
 7.50286   7231.13
 7.51222   7342.26
 7.52158   7422.09
 7.53094   7546.39
 7.5403   7663.59
 7.54966   7755.62
 7.55902   7829.37
 7.56838   7876.15
 7.57774   7907.4
 7.5871   7880.59
 7.59646   7811.73
 7.60582   7677
 7.61518   7467.72
 7.62454   7193.82
 7.6339   6928.81
 7.64326   6669.87
 7.65262   6491.2
 7.66198   6370.09
 7.67134   6271.7
 7.6807   6208.32
 7.69006   6133.27
 7.69942   6067.94
 7.70878   6059.41
 7.71814   6020.81
 7.7275   5987.44
 7.73686   5981.34
 7.74622   5953.34
 7.75558   5897.07
 7.76494   5873.02
 7.7743   5878.54
 7.78366   5855
 7.79302   5820.39
 7.80238   5794.67
 7.81174   5804.2
 7.8211   5774.4
 7.83046   5726.01
 7.83982   5737.92
 7.84918   5723.34
 7.85854   5694.82
 7.8679   5663.95
 7.87726   5665.49
 7.88662   5654.85
 7.89598   5637.3
 7.90534   5598.08
 7.9147   5603.43
 7.92406   5585.27
 7.93342   5589.52
 7.94278   5548.93
 7.95214   5562.32
 7.9615   5565.65
 7.97086   5535.28
 7.98022   5520.09
 7.98958   5537.35
 7.99894   5526.84
 8.0083   5487.01
 8.01766   5491.56
 8.02702   5492.68
 8.03638   5513.2
 8.04574   5495.05
 8.0551   5505.42
 8.06446   5575.06
 8.07382   5686.77
 8.08318   5774.07
 8.09254   5885.92
 8.1019   6036.84
 8.11126   6116.34
 8.12062   6133.73
 8.12998   6167.11
 8.13934   6196.74
 8.1487   6227.04
 8.15806   6259.51
 8.16742   6318.23
 8.17678   6435.43
 8.18614   6576.94
 8.1955   6727.82
 8.20486   6895.61
 8.21422   7077.57
 8.22358   7208.27
 8.23294   7271.49
 8.2423   7273.14
 8.25166   7147.75
 8.26102   6978.72
 8.27038   6745.27
 8.27974   6525.47
 8.2891   6315.88
 8.29846   6094.16
 8.30782   5926.57
 8.31718   5762.32
 8.32654   5628.62
 8.3359   5569.95
 8.34526   5527.82
 8.35462   5534.49
 8.36398   5581.19
 8.37334   5746.62
 8.3827   6116.02
 8.39206   6266.64
 8.40142   6890.59
 8.41078   7132.62
 8.42014   6930.32
 8.4295   6402.85
 8.43886   6333.28
 8.44822   6115.85
 8.45758   6107.9
 8.46694   6158.88
 8.4763   6216.3
 8.48566   6284.88
 8.49502   6315.59
 8.50438   6327.34
 8.51374   6318.13
 8.5231   6317.31
 8.53246   6283.24
 8.54182   6228.92
 8.55118   6186.52
 8.56054   6119.44
 8.5699   6029.95
 8.57926   5944.75
 8.58862   5857.61
 8.59798   5767.32
 8.60734   5702.75
 8.6167   5642.98
 8.62606   5578.82
 8.63542   5529.25
 8.64478   5500.65
 8.65414   5493.01
 8.6635   5466.46
 8.67286   5466.96
 8.68222   5469.15
 8.69158   5474.7
 8.70094   5472.62
 8.7103   5480.98
 8.71966   5485.04
 8.72902   5480.42
 8.73838   5494.29
 8.74774   5498.16
 8.7571   5496.08
 8.76646   5494.87
 8.77582   5480.81
 8.78518   5471.5
 8.79454   5450.25
 8.8039   5429.18
 8.81326   5405.74
 8.82262   5369.25
 8.83198   5336.8
 8.84134   5293.47
 8.8507   5242.57
 8.86006   5162.44
 8.86942   5106.28
 8.87878   5069.19
 8.88814   5016.84
 8.8975   4983.09
 8.90686   4953.79
 8.91622   4947.02
 8.92558   4946.44
 8.93494   4939.07
 8.9443   4948.63
 8.95366   4952.18
 8.96302   4941.39
 8.97238   4944.14
 8.98174   4946.22
 8.9911   4938.38
 9.00046   4938.58
 9.00982   4930.23
 9.01918   4912.94
 9.02854   4889.97
 9.0379   4862.77
 9.04726   4853.05
 9.05662   4842.35
 9.06598   4839.58
 9.07534   4847.75
 9.0847   4836.16
 9.09406   4844.98
 9.10342   4847.69
 9.11278   4863.41
 9.12214   4862.29
 9.1315   4883.4
 9.14086   4907.03
 9.15022   4908.59
 9.15958   4932.37
 9.16894   4953.62
 9.1783   4967.69
 9.18766   4987.3
 9.19702   5022.59
 9.20638   5061.5
 9.21574   5122.69
 9.2251   5166.38
 9.23446   5234.03
 9.24382   5317.28
 9.25318   5415.4
 9.26254   5506.85
 9.2719   5586.95
 9.28126   5663.66
 9.29062   5697.09
 9.29998   5723.52
 9.30934   5724.08
 9.3187   5715.34
 9.32806   5710.45
 9.33742   5683.39
 9.34678   5644.38
 9.35614   5618.35
 9.3655   5601.55
 9.37486   5544.31
 9.38422   5496.56
 9.39358   5454.86
 9.40294   5413.01
 9.4123   5382.64
 9.42166   5340.04
 9.43102   5302.4
 9.44038   5301.7
 9.44974   5284.9
 9.4591   5283.3
 9.46846   5306.04
 9.47782   5331.05
 9.48718   5340.75
 9.49654   5345.04
 9.5059   5337.74
 9.51526   5338.95
 9.52462   5307.51
 9.53398   5288.43
 9.54334   5281.07
 9.5527   5283.4
 9.56206   5274.46
 9.57142   5268.7
 9.58078   5266.41
 9.59014   5278.8
 9.5995   5270.22
 9.60886   5261.6
 9.61822   5243.94
 9.62758   5222.86
 9.63694   5202.13
 9.6463   5169.71
 9.65566   5138.45
 9.66502   5117.61
 9.67438   5084.12
 9.68374   5061.74
 9.6931   5035.29
 9.70246   5021.24
 9.71182   4995.35
 9.72118   4986.8
 9.73054   4970.36
 9.7399   4981.83
 9.74926   4980.69
 9.75862   4985.54
 9.76798   5017.84
 9.77734   5053.54
 9.7867   5112.51
 9.79606   5180.15
 9.80542   5294.1
 9.81478   5474.13
 9.82414   5785.03
 9.8335   6509.92
 9.84286   7657.81
 9.85222   9075.74
 9.86158   11092.1
 9.87094   10535.6
 9.8803   8577.81
 9.88966   6994.94
 9.89902   6281.74
 9.90838   5822.93
 9.91774   5647.04
 9.9271   5569.91
 9.93646   5518.85
 9.94582   5478.4
 9.95518   5449.11
 9.96454   5436.37
 9.9739   5413.44
 9.98326   5386.48
 9.99262   5369.72
 10.002   5362.25
 10.0113   5324.29
 10.0207   5296.05
 10.0301   5260.94
 10.0394   5226.02
 10.0488   5195.92
 10.0581   5175
 10.0675   5153.21
 10.0769   5149.11
 10.0862   5130.29
 10.0956   5128.28
 10.1049   5125.43
 10.1143   5126.65
 10.1237   5129.52
 10.133   5136.94
 10.1424   5150.18
 10.1517   5156.71
 10.1611   5166.77
 10.1705   5183.71
 10.1798   5181.78
 10.1892   5170.03
 10.1985   5182.13
 10.2079   5186.32
 10.2173   5180.04
 10.2266   5181.78
 10.236   5197.74
 10.2453   5205.04
 10.2547   5249.06
 10.2641   5348.02
 10.2734   5519.15
 10.2828   5403.31
 10.2921   5686.36
 10.3015   5825.18
 10.3109   5734.47
 10.3202   5556.08
 10.3296   5753.23
 10.3389   5333.14
 10.3483   5192.09
 10.3577   5113.63
 10.367   5069.92
 10.3764   5073.07
 10.3857   5063.51
 10.3951   5059.72
 10.4045   5045.57
 10.4138   5044.32
 10.4232   5066.48
 10.4325   5043.44
 10.4419   5052.55
 10.4513   5060.84
 10.4606   5061.02
 10.47   5068.53
 10.4793   5079.42
 10.4887   5077.72
 10.4981   5085.95
 10.5074   5098.6
 10.5168   5092.72
 10.5261   5086.18
 10.5355   5094.42
 10.5449   5080.54
 10.5542   5077.52
 10.5636   5078.27
 10.5729   5059.21
 10.5823   5034.09
 10.5917   5026.62
 10.601   5023.14
 10.6104   5004.83
 10.6197   4997.03
 10.6291   4998.42
 10.6385   4989.86
 10.6478   4978.76
 10.6572   4985.45
 10.6665   4978.11
 10.6759   4961.27
 10.6853   4966.15
 10.6946   4970.27
 10.704   4989.63
 10.7133   4996.21
 10.7227   5001.04
 10.7321   5022.33
 10.7414   5035.67
 10.7508   5057.44
 10.7601   5049.27
 10.7695   5038.31
 10.7789   5053.67
 10.7882   5053.92
 10.7976   5029.49
 10.8069   5009.03
 10.8163   5001.31
 10.8257   4990.28
 10.835   4986.54
 10.8444   4984.06
 10.8537   4964.22
 10.8631   4968.13
 10.8725   4948.92
 10.8818   4933.25
 10.8912   4909.23
 10.9005   4892.9
 10.9099   4870.6
 10.9193   4849.42
 10.9286   4829.73
 10.938   4816.72
 10.9473   4796.49
 10.9567   4790.37
 10.9661   4776.12
 10.9754   4768.52
 10.9848   4753.95
 10.9941   4747.94
 11.0035   4750.19
 11.0129   4756.26
 11.0222   4758.06
 11.0316   4760.86
 11.0409   4765.09
 11.0503   4781.71
 11.0597   4799.99
 11.069   4807.64
 11.0784   4821.3
 11.0877   4864.01
 11.0971   4908.47
 11.1065   4946.2
 11.1158   4977.03
 11.1252   5013.65
 11.1345   5025.89
 11.1439   5019.11
 11.1533   5012.75
 11.1626   4968.1
 11.172   4951.63
 11.1813   4917.34
 11.1907   4880.32
 11.2001   4852.41
 11.2094   4831.23
 11.2188   4823.03
 11.2281   4804.74
 11.2375   4805.31
 11.2469   4780.21
 11.2562   4776.69
 11.2656   4752.9
 11.2749   4723.7
 11.2843   4702
 11.2937   4707.5
 11.303   4689.38
 11.3124   4668.19
 11.3217   4652.4
 11.3311   4638.19
 11.3405   4617.03
 11.3498   4601.9
 11.3592   4585.8
 11.3685   4570.95
 11.3779   4561.53
 11.3873   4544.63
 11.3966   4523.86
 11.406   4522.3
 11.4153   4516.71
 11.4247   4512.35
 11.4341   4497.51
 11.4434   4492.85
 11.4528   4499.28
 11.4621   4481.02
 11.4715   4473.94
 11.4809   4476
 11.4902   4473.45
 11.4996   4461.02
 11.5089   4449.73
 11.5183   4437.58
 11.5277   4438.48
 11.537   4409.83
 11.5464   4404
 11.5557   4389.58
 11.5651   4386.12
 11.5745   4379.2
 11.5838   4367.52
 11.5932   4356.39
 11.6025   4358.51
 11.6119   4359.63
 11.6213   4365.6
 11.6306   4343.11
 11.64   4346.18
 11.6493   4334.74
 11.6587   4323.22
 11.6681   4315.12
 11.6774   4314.19
 11.6868   4298.01
 11.6961   4300.41
 11.7055   4295.05
 11.7149   4285.26
 11.7242   4293.03
 11.7336   4293.48
 11.7429   4286.94
 11.7523   4284.69
 11.7617   4282.03
 11.771   4284.59
 11.7804   4298.42
 11.7897   4294.34
 11.7991   4301.74
 11.8085   4311.34
 11.8178   4312.11
 11.8272   4312.01
 11.8365   4320.72
 11.8459   4320.85
 11.8553   4347.45
 11.8646   4370.22
 11.874   4413.29
 11.8833   4433.81
 11.8927   4487.39
 11.9021   4536.93
 11.9114   4539.09
 11.9208   4490.36
 11.9301   4470.36
 11.9395   4454.18
 11.9489   4410.01
 11.9582   4405.01
 11.9676   4416.65
 11.9769   4426.37
 11.9863   4435.58
 11.9957   4458.41
 12.005   4468.82
 12.0144   4468.3
 12.0237   4469.18
 12.0331   4464.38
 12.0425   4470.88
 12.0518   4481.25
 12.0612   4467.47
 12.0705   4471.88
 12.0799   4473.18
 12.0893   4475.68
 12.0986   4476.61
 12.108   4463.28
 12.1173   4457.21
 12.1267   4428.46
 12.1361   4390.88
 12.1454   4343.86
 12.1548   4308.41
 12.1641   4262.39
 12.1735   4222.91
 12.1829   4180.73
 12.1922   4159.8
 12.2016   4142.48
 12.2109   4123.27
 12.2203   4093.85
 12.2297   4085.44
 12.239   4081.97
 12.2484   4075.24
 12.2577   4064.72
 12.2671   4054.42
 12.2765   4052.46
 12.2858   4056.56
 12.2952   4051.37
 12.3045   4046.55
 12.3139   4058.2
 12.3233   4058.54
 12.3326   4053.68
 12.342   4057.1
 12.3513   4055.91
 12.3607   4071.35
 12.3701   4086.08
 12.3794   4082.69
 12.3888   4099.2
 12.3981   4097.98
 12.4075   4110.42
 12.4169   4112.87
 12.4262   4120.25
 12.4356   4130.36
 12.4449   4144.53
 12.4543   4157.59
 12.4637   4163.2
 12.473   4166.84
 12.4824   4188.04
 12.4917   4190.77
 12.5011   4182.23
 12.5105   4181.43
 12.5198   4184.49
 12.5292   4173.71
 12.5385   4165.31
 12.5479   4170.54
 12.5573   4170.9
 12.5666   4177.93
 12.576   4184.91
 12.5853   4188.14
 12.5947   4202.6
 12.6041   4221.13
 12.6134   4227.44
 12.6228   4229.1
 12.6321   4242.98
 12.6415   4239.41
 12.6509   4235.24
 12.6602   4220.7
 12.6696   4202.13
 12.6789   4188.35
 12.6883   4179.93
 12.6977   4160.38