File: docs/GuiliangJun25_tutorial_output/integrals/MA2b-00001_spotsmasked.chi
MA2b-00001.tif Azm= 0.00
2-Theta Angle (Degrees)
Intensity
       2500
 1.00702   7849.74
 1.01638   7790.83
 1.02574   7744.8
 1.0351   7659.02
 1.04446   7597.44
 1.05382   7582.61
 1.06318   7478.99
 1.07254   7488.44
 1.0819   7432.07
 1.09126   7411.97
 1.10062   7373.02
 1.10998   7322.77
 1.11934   7293.86
 1.1287   7261.64
 1.13806   7236.14
 1.14742   7217.83
 1.15678   7189.4
 1.16614   7156.25
 1.1755   7136.31
 1.18486   7150.17
 1.19422   7107.07
 1.20358   7098.43
 1.21294   7079.34
 1.2223   7107.99
 1.23166   7051.56
 1.24102   7054.93
 1.25038   7033.53
 1.25974   7045.16
 1.2691   7038.75
 1.27846   7070.13
 1.28782   7054.35
 1.29718   7060.88
 1.30654   7057.45
 1.3159   7043.89
 1.32526   7061.21
 1.33462   7073.9
 1.34398   7086.48
 1.35334   7085.13
 1.3627   7120.42
 1.37206   7106.85
 1.38142   7134.77
 1.39078   7155.96
 1.40014   7173.64
 1.4095   7211.67
 1.41886   7257.91
 1.42822   7315.84
 1.43758   7341.75
 1.44694   7373
 1.4563   7420.56
 1.46566   7493.39
 1.47502   7524.16
 1.48438   7570.98
 1.49374   7635.12
 1.5031   7666.59
 1.51246   7685.78
 1.52182   7691.9
 1.53118   7704.57
 1.54054   7694.08
 1.5499   7710.39
 1.55926   7656.78
 1.56862   7657.64
 1.57798   7680.69
 1.58734   7639.99
 1.5967   7648.19
 1.60606   7626.03
 1.61542   7665.73
 1.62478   7621.59
 1.63414   7614.9
 1.6435   7627.99
 1.65286   7647.24
 1.66222   7624.67
 1.67158   7654.71
 1.68094   7655.13
 1.6903   7650.47
 1.69966   7641.32
 1.70902   7642
 1.71838   7641.42
 1.72774   7665.8
 1.7371   7667.7
 1.74646   7673.49
 1.75582   7692.17
 1.76518   7725.49
 1.77454   7714.79
 1.7839   7760.75
 1.79326   7790.25
 1.80262   7815.59
 1.81198   7841.14
 1.82134   7862.05
 1.8307   7881.43
 1.84006   7919.62
 1.84942   7965.55
 1.85878   7980.47
 1.86814   8005.54
 1.8775   8049.31
 1.88686   8122.68
 1.89622   8164.34
 1.90558   8195.33
 1.91494   8242.27
 1.9243   8320.08
 1.93366   8328.83
 1.94302   8385.04
 1.95238   8458.51
 1.96174   8497.03
 1.9711   8542.92
 1.98046   8580.24
 1.98982   8633.82
 1.99918   8692.76
 2.00854   8744.24
 2.0179   8765.28
 2.02726   8820.45
 2.03662   8853.28
 2.04598   8949.96
 2.05534   8967.7
 2.0647   9041.56
 2.07406   9122.31
 2.08342   9257.21
 2.09278   9388.58
 2.10214   9590.4
 2.1115   9920.18
 2.12086   10486.5
 2.13022   11577.1
 2.13958   13586.3
 2.14894   16468.1
 2.1583   19535
 2.16766   22387
 2.17702   23916.8
 2.18638   23739.1
 2.19574   22065.2
 2.2051   19713
 2.21446   17669
 2.22382   16218.7
 2.23318   15246.4
 2.24254   14377.9
 2.2519   13313.6
 2.26126   12216.1
 2.27062   11314.5
 2.27998   10803.5
 2.28934   10543.4
 2.2987   10468.4
 2.30806   10434.1
 2.31742   10465.7
 2.32678   10468.8
 2.33614   10517.9
 2.3455   10571.2
 2.35486   10613.7
 2.36422   10678.6
 2.37358   10736.9
 2.38294   10794
 2.3923   10847
 2.40166   10924.5
 2.41102   10986.6
 2.42038   11064.3
 2.42974   11147.7
 2.4391   11213.7
 2.44846   11283.3
 2.45782   11370.5
 2.46718   11441.3
 2.47654   11487.6
 2.4859   11574.2
 2.49526   11647.4
 2.50462   11710.5
 2.51398   11786.4
 2.52334   11865.6
 2.5327   11923.7
 2.54206   11996.2
 2.55142   12059.5
 2.56078   12128.8
 2.57014   12184.4
 2.5795   12256.9
 2.58886   12284.9
 2.59822   12373.9
 2.60758   12425.1
 2.61694   12448.7
 2.6263   12514.4
 2.63566   12544.6
 2.64502   12558.9
 2.65438   12608.3
 2.66374   12640
 2.6731   12684.9
 2.68246   12684.6
 2.69182   12712.5
 2.70118   12738
 2.71054   12740.2
 2.7199   12746
 2.72926   12772.6
 2.73862   12765.9
 2.74798   12749.7
 2.75734   12730.7
 2.7667   12723.8
 2.77606   12702.4
 2.78542   12691.3
 2.79478   12674.4
 2.80414   12664.9
 2.8135   12618.6
 2.82286   12619.2
 2.83222   12581.3
 2.84158   12568.1
 2.85094   12516.8
 2.8603   12484.3
 2.86966   12456.1
 2.87902   12415
 2.88838   12384.6
 2.89774   12351.2
 2.9071   12324.9
 2.91646   12282
 2.92582   12221.5
 2.93518   12194.2
 2.94454   12168.8
 2.9539   12140.9
 2.96326   12086.5
 2.97262   12038.5
 2.98198   11993.6
 2.99134   11950.2
 3.0007   11864.4
 3.01006   11828.2
 3.01942   11781.9
 3.02878   11745.8
 3.03814   11663.6
 3.0475   11612.4
 3.05686   11548.7
 3.06622   11486.9
 3.07558   11446.5
 3.08494   11401.9
 3.0943   11339.9
 3.10366   11281.4
 3.11302   11262.2
 3.12238   11246.6
 3.13174   11177.4
 3.1411   11150.7
 3.15046   11086.3
 3.15982   11065
 3.16918   11029.1
 3.17854   10986.5
 3.1879   10987.8
 3.19726   10969.5
 3.20662   10928.3
 3.21598   10891.8
 3.22534   10847.3
 3.2347   10848
 3.24406   10795
 3.25342   10757.2
 3.26278   10750.6
 3.27214   10741.9
 3.2815   10703.2
 3.29086   10702.2
 3.30022   10690.1
 3.30958   10678.1
 3.31894   10656.5
 3.3283   10669.6
 3.33766   10649.7
 3.34702   10633
 3.35638   10609.7
 3.36574   10622
 3.3751   10621.1
 3.38446   10603.6
 3.39382   10611.3
 3.40318   10629.7
 3.41254   10622.4
 3.4219   10604.8
 3.43126   10610.5
 3.44062   10652.1
 3.44998   10652.4
 3.45934   10635.8
 3.4687   10636.6
 3.47806   10646.4
 3.48742   10651.5
 3.49678   10613.4
 3.50614   10618.6
 3.5155   10654.6
 3.52486   10621.6
 3.53422   10616.5
 3.54358   10653
 3.55294   10649.4
 3.5623   10614.1
 3.57166   10609.8
 3.58102   10643.8
 3.59038   10611.6
 3.59974   10581.3
 3.6091   10625.3
 3.61846   10670.1
 3.62782   10590.2
 3.63718   10525.8
 3.64654   10576
 3.6559   10584.2
 3.66526   10504.4
 3.67462   10424.4
 3.68398   10493.8
 3.69334   10462.1
 3.7027   10344.9
 3.71206   10284.2
 3.72142   10285.4
 3.73078   10182.4
 3.74014   10078
 3.7495   10023.3
 3.75886   9953.88
 3.76822   9871.13
 3.77758   9751.91
 3.78694   9771.6
 3.7963   9762.04
 3.80566   9553.77
 3.81502   9481.64
 3.82438   9527.08
 3.83374   9444.31
 3.8431   9277.27
 3.85246   9303.17
 3.86182   9256.96
 3.87118   9201.86
 3.88054   9066.86
 3.8899   9023.16
 3.89926   8995.16
 3.90862   8880.44
 3.91798   8816.28
 3.92734   8835.01
 3.9367   8731.44
 3.94606   8677.7
 3.95542   8677.68
 3.96478   8589.09
 3.97414   8543.49
 3.9835   8520.37
 3.99286   8447.75
 4.00222   8479.06
 4.01158   8410.15
 4.02094   8302.46
 4.0303   8333.74
 4.03966   8342.96
 4.04902   8247.83
 4.05838   8197.89
 4.06774   8194.02
 4.0771   8117.51
 4.08646   8082.11
 4.09582   8023.56
 4.10518   8049.83
 4.11454   8070.9
 4.1239   7945.9
 4.13326   7930.61
 4.14262   7948.9
 4.15198   7895.52
 4.16134   7807.77
 4.1707   7789.55
 4.18006   7852.21
 4.18942   7830.6
 4.19878   7725.22
 4.20814   7748.84
 4.2175   7888.41
 4.22686   7742.29
 4.23622   7664.34
 4.24558   7723.41
 4.25494   7785.04
 4.2643   7772.69
 4.27366   7848.23
 4.28302   7967.01
 4.29238   8080.06
 4.30174   8158.96
 4.3111   8272.38
 4.32046   8470.05
 4.32982   8624.9
 4.33918   8709.46
 4.34854   8855.54
 4.3579   8971.82
 4.36726   8891.52
 4.37662   8771.89
 4.38598   8648.38
 4.39534   8506.8
 4.4047   8363.4
 4.41406   8181.11
 4.42342   8055.65
 4.43278   8004.83
 4.44214   7872.7
 4.4515   7774.88
 4.46086   7767.99
 4.47022   7753.57
 4.47958   7669.42
 4.48894   7650.88
 4.4983   7571.73
 4.50766   7427.79
 4.51702   7251.15
 4.52638   7124.84
 4.53574   7059.25
 4.5451   6979.44
 4.55446   6922.9
 4.56382   6893.45
 4.57318   6876.8
 4.58254   6830.27
 4.5919   6802.32
 4.60126   6738.95
 4.61062   6735.06
 4.61998   6670.29
 4.62934   6665.25
 4.6387   6648.89
 4.64806   6622.04
 4.65742   6561.72
 4.66678   6570.66
 4.67614   6554.62
 4.6855   6538.56
 4.69486   6558.93
 4.70422   6607.02
 4.71358   6689.86
 4.72294   6858.09
 4.7323   7016.77
 4.74166   7201.42
 4.75102   7359.06
 4.76038   7555.81
 4.76974   7836.67
 4.7791   8231.19
 4.78846   8724.93
 4.79782   9134.32
 4.80718   9365.07
 4.81654   9214.16
 4.8259   8812.8
 4.83526   8280.63
 4.84462   7773.12
 4.85398   7360.5
 4.86334   7048.13
 4.8727   6913.04
 4.88206   6982.03
 4.89142   7190.08
 4.90078   7545.03
 4.91014   7940.37
 4.9195   8250.42
 4.92886   8441.75
 4.93822   8505.36
 4.94758   8485.52
 4.95694   8394.8
 4.9663   8278.51
 4.97566   8154.09
 4.98502   8006.51
 4.99438   7781.53
 5.00374   7521.86
 5.0131   7217.88
 5.02246   6961.93
 5.03182   6696.37
 5.04118   6504.43
 5.05054   6387.85
 5.0599   6339.64
 5.06926   6390.71
 5.07862   6522.06
 5.08798   6807.81
 5.09734   7456.8
 5.1067   9142.5
 5.11606   12342.5
 5.12542   20383.8
 5.13478   38616.6
 5.14414   50679.6
 5.1535   40899.3
 5.16286   25438
 5.17222   14431.9
 5.18158   9191.79
 5.19094   7168.61
 5.2003   6594.73
 5.20966   6331.21
 5.21902   6151.87
 5.22838   6031.74
 5.23774   5950.55
 5.2471   5921.3
 5.25646   5874.89
 5.26582   5850.27
 5.27518   5804.67
 5.28454   5792.63
 5.2939   5780.58
 5.30326   5769.6
 5.31262   5770.74
 5.32198   5766.74
 5.33134   5745.28
 5.3407   5746.48
 5.35006   5746.77
 5.35942   5748.99
 5.36878   5751.57
 5.37814   5762.87
 5.3875   5762.59
 5.39686   5781.5
 5.40622   5813.18
 5.41558   5823.48
 5.42494   5860.21
 5.4343   5911.26
 5.44366   5945.44
 5.45302   6003.11
 5.46238   6111.22
 5.47174   6244.41
 5.4811   6440.21
 5.49046   6695.99
 5.49982   7115.45
 5.50918   7812.68
 5.51854   8817.68
 5.5279   10230.6
 5.53726   12077.8
 5.54662   14091.7
 5.55598   15623.3
 5.56534   16143.2
 5.5747   15655.1
 5.58406   14435.6
 5.59342   12957.9
 5.60278   11548.3
 5.61214   10369.9
 5.6215   9453.93
 5.63086   8719.17
 5.64022   8119.37
 5.64958   7624.05
 5.65894   7204.02
 5.6683   6825.05
 5.67766   6558.26
 5.68702   6351.58
 5.69638   6190.57
 5.70574   6071.27
 5.7151   5970.83
 5.72446   5927.09
 5.73382   5892.03
 5.74318   5888.05
 5.75254   5893.08
 5.7619   5902.41
 5.77126   5864.4
 5.78062   5842.92
 5.78998   5806.36
 5.79934   5787.81
 5.8087   5773.56
 5.81806   5739.71
 5.82742   5754.32
 5.83678   5759.01
 5.84614   5768.09
 5.8555   5792.99
 5.86486   5845.47
 5.87422   5898.08
 5.88358   5975.29
 5.89294   6078.95
 5.9023   6316.93
 5.91166   6923.61
 5.92102   8200.13
 5.93038   10754.6
 5.93974   12752.2
 5.9491   12366
 5.95846   10162.8
 5.96782   8106.06
 5.97718   7125.31
 5.98654   6817.35
 5.9959   6665.41
 6.00526   6537.19
 6.01462   6446.58
 6.02398   6331.66
 6.03334   6196.06
 6.0427   6100.38
 6.05206   6028.99
 6.06142   5955.72
 6.07078   5876.76
 6.08014   5853.43
 6.0895   5820.27
 6.09886   5789.44
 6.10822   5764.2
 6.11758   5765.2
 6.12694   5750.93
 6.1363   5750.74
 6.14566   5723.46
 6.15502   5731.55
 6.16438   5742.8
 6.17374   5733.71
 6.1831   5737.24
 6.19246   5744.13
 6.20182   5758.95
 6.21118   5759.52
 6.22054   5755.44
 6.2299   5782.06
 6.23926   5773.12
 6.24862   5764.57
 6.25798   5778.87
 6.26734   5795.63
 6.2767   5813.93
 6.28606   5790.13
 6.29542   5805.46
 6.30478   5819.06
 6.31414   5823.1
 6.3235   5811.76
 6.33286   5839.64
 6.34222   5875.65
 6.35158   5863.81
 6.36094   5848.45
 6.3703   5842.46
 6.37966   5849.63
 6.38902   5877.42
 6.39838   5860.21
 6.40774   5894.84
 6.4171   5910.68
 6.42646   5914.01
 6.43582   5928.72
 6.44518   5959.35
 6.45454   5926.71
 6.4639   5932.45
 6.47326   5905.73
 6.48262   5927.33
 6.49198   5949.01
 6.50134   5937.08
 6.5107   5947.67
 6.52006   5991.17
 6.52942   5982.92
 6.53878   6012.55
 6.54814   6046.14
 6.5575   6068.01
 6.56686   6063.32
 6.57622   6068.91
 6.58558   6098.38
 6.59494   6122.75
 6.6043   6137.37
 6.61366   6132.2
 6.62302   6154.22
 6.63238   6170.89
 6.64174   6159.74
 6.6511   6204.18
 6.66046   6255.88
 6.66982   6258.33
 6.67918   6274.91
 6.68854   6278.03
 6.6979   6302.95
 6.70726   6342.5
 6.71662   6360.18
 6.72598   6390.98
 6.73534   6470
 6.7447   6472.73
 6.75406   6495.5
 6.76342   6511.27
 6.77278   6597.65
 6.78214   6576.31
 6.7915   6589.41
 6.80086   6590.89
 6.81022   6632.09
 6.81958   6640.23
 6.82894   6636.9
 6.8383   6683.63
 6.84766   6788.16
 6.85702   6795.88
 6.86638   6890.6
 6.87574   6973.09
 6.8851   7046.73
 6.89446   7139.41
 6.90382   7251.35
 6.91318   7355.55
 6.92254   7507.43
 6.9319   7618.71
 6.94126   7664.66
 6.95062   7793.12
 6.95998   7924.1
 6.96934   7929.4
 6.9787   8037.4
 6.98806   8111.99
 6.99742   8140.04
 7.00678   8201.49
 7.01614   8189.07
 7.0255   8160.62
 7.03486   8049.67
 7.04422   7881.58
 7.05358   7735.47
 7.06294   7635.35
 7.0723   7451.85
 7.08166   7230.98
 7.09102   7005.09
 7.10038   6921.05
 7.10974   6790.27
 7.1191   6736.73
 7.12846   6697.59
 7.13782   6652.62
 7.14718   6614.42
 7.15654   6598.65
 7.1659   6563.69
 7.17526   6591.7
 7.18462   6554.23
 7.19398   6546.6
 7.20334   6550.75
 7.2127   6550.63
 7.22206   6508.01
 7.23142   6508.57
 7.24078   6512
 7.25014   6541.29
 7.2595   6533.56
 7.26886   6546.24
 7.27822   6553.87
 7.28758   6563.53
 7.29694   6537.12
 7.3063   6553.03
 7.31566   6569.96
 7.32502   6620.37
 7.33438   6632.77
 7.34374   6693.19
 7.3531   6719.29
 7.36246   6752.55
 7.37182   6781.85
 7.38118   6780.82
 7.39054   6788.1
 7.3999   6801.02
 7.40926   6806.85
 7.41862   6810.11
 7.42798   6832.59
 7.43734   6850.61
 7.4467   6867.22
 7.45606   6900.45
 7.46542   6953.29
 7.47478   7000.62
 7.48414   7059
 7.4935   7116.66
 7.50286   7231.13
 7.51222   7342.26
 7.52158   7422.09
 7.53094   7546.39
 7.5403   7666.54
 7.54966   7756.93
 7.55902   7830.58
 7.56838   7876.15
 7.57774   7907.4
 7.5871   7880.59
 7.59646   7814.5
 7.60582   7677
 7.61518   7467.72
 7.62454   7193.82
 7.6339   6928.81
 7.64326   6669.87
 7.65262   6491.2
 7.66198   6370.09
 7.67134   6271.7
 7.6807   6208.32
 7.69006   6134.77
 7.69942   6070.89
 7.70878   6063.63
 7.71814   6020.81
 7.7275   5987.44
 7.73686   5981.34
 7.74622   5957.58
 7.75558   5898.6
 7.76494   5875.66
 7.7743   5880.01
 7.78366   5858.07
 7.79302   5820.39
 7.80238   5794.67
 7.81174   5805.67
 7.8211   5774.4
 7.83046   5727.62
 7.83982   5737.92
 7.84918   5726.5
 7.85854   5696.41
 7.8679   5665.48
 7.87726   5665.49
 7.88662   5654.85
 7.89598   5637.3
 7.90534   5598.08
 7.9147   5603.43
 7.92406   5585.27
 7.93342   5592.59
 7.94278   5548.93
 7.95214   5563.77
 7.9615   5565.65
 7.97086   5535.28
 7.98022   5521.56
 7.98958   5538.84
 7.99894   5526.84
 8.0083   5487.01
 8.01766   5493.12
 8.02702   5494.23
 8.03638   5513.2
 8.04574   5496.74
 8.0551   5508.45
 8.06446   5575.06
 8.07382   5686.77
 8.08318   5774.07
 8.09254   5887.32
 8.1019   6036.84
 8.11126   6119.83
 8.12062   6135.01
 8.12998   6167.11
 8.13934   6198.18
 8.1487   6228.35
 8.15806   6259.51
 8.16742   6319.62
 8.17678   6435.43
 8.18614   6576.94
 8.1955   6728.98
 8.20486   6895.61
 8.21422   7077.57
 8.22358   7208.27
 8.23294   7275.54
 8.2423   7274.47
 8.25166   7150.33
 8.26102   6978.72
 8.27038   6747.98
 8.27974   6526.74
 8.2891   6315.88
 8.29846   6095.25
 8.30782   5926.57
 8.31718   5762.32
 8.32654   5632.18
 8.3359   5569.95
 8.34526   5528.93
 8.35462   5535.29
 8.36398   5582.25
 8.37334   5761.86
 8.3827   6231.98
 8.39206   7042.26
 8.40142   8155.3
 8.41078   8549.18
 8.42014   7921.13
 8.4295   6844.35
 8.43886   6361.04
 8.44822   6117.04
 8.45758   6107.9
 8.46694   6158.88
 8.4763   6216.3
 8.48566   6285.95
 8.49502   6315.59
 8.50438   6327.34
 8.51374   6321.18
 8.5231   6317.31
 8.53246   6285.05
 8.54182   6230.94
 8.55118   6188.94
 8.56054   6119.44
 8.5699   6030.58
 8.57926   5949.28
 8.58862   5857.61
 8.59798   5769.14
 8.60734   5704.5
 8.6167   5643.89
 8.62606   5580.34
 8.63542   5532.57
 8.64478   5501.64
 8.65414   5494.73
 8.6635   5467.24
 8.67286   5466.96
 8.68222   5469.94
 8.69158   5474.1
 8.70094   5474.12
 8.7103   5480.98
 8.71966   5485.79
 8.72902   5481.24
 8.73838   5495.14
 8.74774   5500.37
 8.7571   5496.08
 8.76646   5495.64
 8.77582   5481.61
 8.78518   5472.37
 8.79454   5450.25
 8.8039   5430.72
 8.81326   5406.42
 8.82262   5370.04
 8.83198   5337.52
 8.84134   5294.2
 8.8507   5245.93
 8.86006   5163.8
 8.86942   5106.28
 8.87878   5070.92
 8.88814   5019.97
 8.8975   4983.09
 8.90686   4953.79
 8.91622   4949.2
 8.92558   4946.42
 8.93494   4939.75
 8.9443   4948.63
 8.95366   4953.45
 8.96302   4942.01
 8.97238   4945.52
 8.98174   4946.87
 8.9911   4938.38
 9.00046   4938.58
 9.00982   4931.48
 9.01918   4913.58
 9.02854   4891.07
 9.0379   4862.13
 9.04726   4853.66
 9.05662   4842.35
 9.06598   4839.58
 9.07534   4847.75
 9.0847   4836.16
 9.09406   4845.63
 9.10342   4849.37
 9.11278   4863.48
 9.12214   4861.16
 9.1315   4884.01
 9.14086   4907.55
 9.15022   4909.69
 9.15958   4932.37
 9.16894   4953.62
 9.1783   4968.8
 9.18766   4988.3
 9.19702   5025.4
 9.20638   5060.89
 9.21574   5124.82
 9.2251   5167.4
 9.23446   5235.22
 9.24382   5319.38
 9.25318   5416.84
 9.26254   5506.32
 9.2719   5591.85
 9.28126   5666.01
 9.29062   5699.21
 9.29998   5725.55
 9.30934   5726.48
 9.3187   5715.77
 9.32806   5711.12
 9.33742   5685.33
 9.34678   5644.85
 9.35614   5620.36
 9.3655   5602.59
 9.37486   5543.85
 9.38422   5498.35
 9.39358   5454.87
 9.40294   5413.62
 9.4123   5383.66
 9.42166   5341.62
 9.43102   5302.91
 9.44038   5302.68
 9.44974   5286.98
 9.4591   5283.84
 9.46846   5305.93
 9.47782   5331.05
 9.48718   5339.3
 9.49654   5346.16
 9.5059   5337.24
 9.51526   5338.47
 9.52462   5307.99
 9.53398   5290.37
 9.54334   5282.1
 9.5527   5286.24
 9.56206   5274.56
 9.57142   5269.5
 9.58078   5269.92
 9.59014   5280.58
 9.5995   5269.56
 9.60886   5262.66
 9.61822   5243.94
 9.62758   5222.91
 9.63694   5202.68
 9.6463   5169.16
 9.65566   5138.44
 9.66502   5118.3
 9.67438   5084.12
 9.68374   5061.74
 9.6931   5035.83
 9.70246   5020.58
 9.71182   4995.93
 9.72118   4987.5
 9.73054   4972.42
 9.7399   4982.01
 9.74926   4980.69
 9.75862   4985.54
 9.76798   5019.87
 9.77734   5056.97
 9.7867   5112.51
 9.79606   5180.15
 9.80542   5297.25
 9.81478   5476.46
 9.82414   5820.41
 9.8335   6599.59
 9.84286   8222.36
 9.85222   10653.5
 9.86158   12575.6
 9.87094   11700.7
 9.8803   9306.86
 9.88966   7334.71
 9.89902   6295.03
 9.90838   5836.45
 9.91774   5647.83
 9.9271   5569.91
 9.93646   5520.83
 9.94582   5480.44
 9.95518   5449.91
 9.96454   5439.09
 9.9739   5414.15
 9.98326   5387.09
 9.99262   5371.03
 10.002   5363.61
 10.0113   5327.64
 10.0207   5296.68
 10.0301   5260.94
 10.0394   5228.12
 10.0488   5197.78
 10.0581   5176.3
 10.0675   5153.91
 10.0769   5150.44
 10.0862   5132.91
 10.0956   5130.9
 10.1049   5126.75
 10.1143   5126.65
 10.1237   5132.1
 10.133   5140.41
 10.1424   5151.56
 10.1517   5156.71
 10.1611   5168.23
 10.1705   5187.13
 10.1798   5185.93
 10.1892   5170.68
 10.1985   5184.8
 10.2079   5187.27
 10.2173   5181.47
 10.2266   5184.62
 10.236   5198.93
 10.2453   5208.12
 10.2547   5260.53
 10.2641   5367.79
 10.2734   5697.57
 10.2828   6431.72
 10.2921   7647.63
 10.3015   8437.11
 10.3109   8051.69
 10.3202   6774.07
 10.3296   5901.98
 10.3389   5381.1
 10.3483   5192.09
 10.3577   5113.63
 10.367   5069.92
 10.3764   5073.07
 10.3857   5065.06
 10.3951   5059.72
 10.4045   5045.57
 10.4138   5044.32
 10.4232   5067.35
 10.4325   5043.44
 10.4419   5054.11
 10.4513   5061.64
 10.4606   5062.83
 10.47   5068.53
 10.4793   5081.84
 10.4887   5078.67
 10.4981   5088.72
 10.5074   5102.12
 10.5168   5099.68
 10.5261   5087.1
 10.5355   5095.31
 10.5449   5080.54
 10.5542   5079.03
 10.5636   5079.77
 10.5729   5059.9
 10.5823   5035.54
 10.5917   5029.45
 10.601   5024.66
 10.6104   5006.33
 10.6197   4997.03
 10.6291   4999.23
 10.6385   4992.69
 10.6478   4980.18
 10.6572   4985.48
 10.6665   4979.4
 10.6759   4965.04
 10.6853   4966.15
 10.6946   4973
 10.704   4993.02
 10.7133   4999.39
 10.7227   5004.28
 10.7321   5024.8
 10.7414   5037.55
 10.7508   5057.99
 10.7601   5050.53
 10.7695   5040.29
 10.7789   5053.67
 10.7882   5055.11
 10.7976   5032.06
 10.8069   5010.22
 10.8163   5002.51
 10.8257   4993.59
 10.835   4987.02
 10.8444   4984.06
 10.8537   4964.76
 10.8631   4968.13
 10.8725   4950.06
 10.8818   4935.57
 10.8912   4911.87
 10.9005   4895.14
 10.9099   4872.28
 10.9193   4850.93
 10.9286   4831.82
 10.938   4817.33
 10.9473   4797.51
 10.9567   4793.36
 10.9661   4777.61
 10.9754   4768.93
 10.9848   4753.5
 10.9941   4749.82
 11.0035   4749.69
 11.0129   4756.19
 11.0222   4759.14
 11.0316   4760.86
 11.0409   4766.38
 11.0503   4781.71
 11.0597   4800.45
 11.069   4808.74
 11.0784   4820.87
 11.0877   4864.41
 11.0971   4910.78
 11.1065   4947
 11.1158   4978.66
 11.1252   5013.56
 11.1345   5025.84
 11.1439   5021.24
 11.1533   5013.91
 11.1626   4968.1
 11.172   4952.73
 11.1813   4918.28
 11.1907   4879.93
 11.2001   4852.75
 11.2094   4832.59
 11.2188   4823.73
 11.2281   4804.66
 11.2375   4805.78
 11.2469   4780.62
 11.2562   4777.16
 11.2656   4751.59
 11.2749   4724.03
 11.2843   4700.81
 11.2937   4708.6
 11.303   4689.22
 11.3124   4667.06
 11.3217   4653.5
 11.3311   4636.93
 11.3405   4615.45
 11.3498   4602.3
 11.3592   4585.89
 11.3685   4572.02
 11.3779   4560.69
 11.3873   4545.02
 11.3966   4523.08
 11.406   4522.54
 11.4153   4516.25
 11.4247   4511.96
 11.4341   4497.89
 11.4434   4493.27
 11.4528   4499.71
 11.4621   4480.63
 11.4715   4474.74
 11.4809   4475.55
 11.4902   4473.83
 11.4996   4460.65
 11.5089   4448.55
 11.5183   4437.57
 11.5277   4438.42
 11.537   4409.4
 11.5464   4403.6
 11.5557   4389.59
 11.5651   4386.32
 11.5745   4380.53
 11.5838   4366.92
 11.5932   4355.59
 11.6025   4358.04
 11.6119   4359.98
 11.6213   4366.35
 11.6306   4343.13
 11.64   4346.6
 11.6493   4335.07
 11.6587   4323.03
 11.6681   4315.41
 11.6774   4314.94
 11.6868   4298.5
 11.6961   4300.31
 11.7055   4295.98
 11.7149   4286.41
 11.7242   4293.52
 11.7336   4293.91
 11.7429   4287.76
 11.7523   4284.7
 11.7617   4283.88
 11.771   4285.04
 11.7804   4299.66
 11.7897   4294.43
 11.7991   4301.59
 11.8085   4312.62
 11.8178   4312.11
 11.8272   4312.9
 11.8365   4320.72
 11.8459   4322.77
 11.8553   4348.01
 11.8646   4371.56
 11.874   4433.54
 11.8833   4566.35
 11.8927   4769.98
 11.9021   4929.95
 11.9114   4871.76
 11.9208   4701.01
 11.9301   4539.7
 11.9395   4460.33
 11.9489   4411.28
 11.9582   4405.31
 11.9676   4418.37
 11.9769   4426.79
 11.9863   4436.41
 11.9957   4459.61
 12.005   4468.82
 12.0144   4467.87
 12.0237   4469.71
 12.0331   4467.81
 12.0425   4472.62
 12.0518   4482.11
 12.0612   4467.44
 12.0705   4473.02
 12.0799   4476.02
 12.0893   4479.35
 12.0986   4478.04
 12.108   4464.86
 12.1173   4457.6
 12.1267   4429.52
 12.1361   4390.88
 12.1454   4344.56
 12.1548   4308.77
 12.1641   4262.03
 12.1735   4223.65
 12.1829   4181.85
 12.1922   4160.22
 12.2016   4143.1
 12.2109   4123.99
 12.2203   4094.56
 12.2297   4085.77
 12.239   4082.31
 12.2484   4075.52
 12.2577   4066.43
 12.2671   4055.85
 12.2765   4053.3
 12.2858   4058.07
 12.2952   4050.95
 12.3045   4048.29
 12.3139   4058.97
 12.3233   4059.53
 12.3326   4053.66
 12.342   4058.41
 12.3513   4056.26
 12.3607   4070.89
 12.3701   4086.84
 12.3794   4084.17
 12.3888   4100.15
 12.3981   4099.74
 12.4075   4111.68
 12.4169   4115.31
 12.4262   4120.55
 12.4356   4130.95
 12.4449   4145.26
 12.4543   4157.23
 12.4637   4163.52
 12.473   4167.52
 12.4824   4189.62
 12.4917   4190.44
 12.5011   4182.85
 12.5105   4185
 12.5198   4184.13
 12.5292   4174.65
 12.5385   4166.63
 12.5479   4172.94
 12.5573   4172.46
 12.5666   4177.94
 12.576   4185.23
 12.5853   4188.37
 12.5947   4203.3
 12.6041   4222.54
 12.6134   4229.4
 12.6228   4230.75
 12.6321   4242.65
 12.6415   4240.03
 12.6509   4235.48
 12.6602   4222.07
 12.6696   4202.42
 12.6789   4188.56
 12.6883   4180.46
 12.6977   4160.1