File: docs/GuiliangJun25_tutorial_output/integrals/MA2b-00002_spotsmasked.chi
MA2b-00002.tif Azm= 0.00
2-Theta Angle (Degrees)
Intensity
       2500
 1.00702   7895.89
 1.01638   7821.77
 1.02574   7766.59
 1.0351   7738.86
 1.04446   7673.27
 1.05382   7642.52
 1.06318   7574.36
 1.07254   7523.6
 1.0819   7516.48
 1.09126   7462.06
 1.10062   7430.56
 1.10998   7367.41
 1.11934   7309.18
 1.1287   7307.71
 1.13806   7263.54
 1.14742   7231.82
 1.15678   7224.66
 1.16614   7218.58
 1.1755   7185.91
 1.18486   7167.34
 1.19422   7153.61
 1.20358   7130.47
 1.21294   7135.23
 1.2223   7130.54
 1.23166   7096.29
 1.24102   7088.26
 1.25038   7086.71
 1.25974   7101.33
 1.2691   7088.81
 1.27846   7079.43
 1.28782   7106.51
 1.29718   7086.24
 1.30654   7102.51
 1.3159   7108.41
 1.32526   7100.73
 1.33462   7146.4
 1.34398   7145.12
 1.35334   7137.71
 1.3627   7147.09
 1.37206   7181.18
 1.38142   7184.34
 1.39078   7225.33
 1.40014   7225.46
 1.4095   7241.57
 1.41886   7284.62
 1.42822   7329.6
 1.43758   7375.01
 1.44694   7414.02
 1.4563   7472.13
 1.46566   7542.08
 1.47502   7594.3
 1.48438   7624.15
 1.49374   7669.26
 1.5031   7709.97
 1.51246   7748.89
 1.52182   7762.02
 1.53118   7780.57
 1.54054   7735.39
 1.5499   7714.43
 1.55926   7718.89
 1.56862   7685.66
 1.57798   7700.87
 1.58734   7691.57
 1.5967   7681.18
 1.60606   7684.09
 1.61542   7678.05
 1.62478   7660.54
 1.63414   7673.98
 1.6435   7663.26
 1.65286   7672.59
 1.66222   7668.19
 1.67158   7678.98
 1.68094   7683.3
 1.6903   7671.71
 1.69966   7677.96
 1.70902   7706.6
 1.71838   7728.74
 1.72774   7696.17
 1.7371   7702.41
 1.74646   7696.6
 1.75582   7719.52
 1.76518   7740.81
 1.77454   7751.97
 1.7839   7794.93
 1.79326   7818.22
 1.80262   7836.99
 1.81198   7895.22
 1.82134   7929.21
 1.8307   7954.11
 1.84006   7986.98
 1.84942   8000.47
 1.85878   8074.72
 1.86814   8094.81
 1.8775   8134.86
 1.88686   8163.64
 1.89622   8192.12
 1.90558   8246.97
 1.91494   8299.21
 1.9243   8368.9
 1.93366   8426.08
 1.94302   8456.55
 1.95238   8500.95
 1.96174   8538.08
 1.9711   8583.92
 1.98046   8640.22
 1.98982   8693.41
 1.99918   8717.24
 2.00854   8774.09
 2.0179   8856.49
 2.02726   8893.6
 2.03662   8955.56
 2.04598   8994.07
 2.05534   9062
 2.0647   9126.42
 2.07406   9210
 2.08342   9336.3
 2.09278   9507.41
 2.10214   9763.23
 2.1115   10215.8
 2.12086   11058.8
 2.13022   12770.1
 2.13958   15497.7
 2.14894   18954.4
 2.1583   21946.5
 2.16766   23966.9
 2.17702   24541.9
 2.18638   23522.9
 2.19574   21371.2
 2.2051   18817.7
 2.21446   16752.7
 2.22382   15338
 2.23318   14454.5
 2.24254   13669.5
 2.2519   12831.1
 2.26126   11892.9
 2.27062   11195.5
 2.27998   10783.7
 2.28934   10568.8
 2.2987   10505.7
 2.30806   10493.5
 2.31742   10506
 2.32678   10544
 2.33614   10582.5
 2.3455   10642.5
 2.35486   10692.3
 2.36422   10735.1
 2.37358   10793.5
 2.38294   10864.3
 2.3923   10927.7
 2.40166   10998.3
 2.41102   11062.2
 2.42038   11150.2
 2.42974   11218.1
 2.4391   11278.6
 2.44846   11344.2
 2.45782   11423.9
 2.46718   11475.5
 2.47654   11578.4
 2.4859   11645.4
 2.49526   11716.6
 2.50462   11790.2
 2.51398   11857.6
 2.52334   11965.3
 2.5327   11997.9
 2.54206   12070.2
 2.55142   12139.9
 2.56078   12202.4
 2.57014   12292.6
 2.5795   12339.7
 2.58886   12403.4
 2.59822   12451.1
 2.60758   12471.8
 2.61694   12550.5
 2.6263   12595
 2.63566   12638.1
 2.64502   12648.5
 2.65438   12699.3
 2.66374   12733.4
 2.6731   12719.2
 2.68246   12739.5
 2.69182   12795.5
 2.70118   12787.7
 2.71054   12808.9
 2.7199   12830.7
 2.72926   12835.8
 2.73862   12831.3
 2.74798   12844.5
 2.75734   12808.4
 2.7667   12805.5
 2.77606   12797.5
 2.78542   12760.2
 2.79478   12736
 2.80414   12722.3
 2.8135   12711.6
 2.82286   12658.2
 2.83222   12641.9
 2.84158   12600.2
 2.85094   12571
 2.8603   12549.9
 2.86966   12510.7
 2.87902   12493.3
 2.88838   12447.6
 2.89774   12402.6
 2.9071   12401.4
 2.91646   12352
 2.92582   12315.4
 2.93518   12276.4
 2.94454   12240.1
 2.9539   12202
 2.96326   12152.1
 2.97262   12094.7
 2.98198   12057.1
 2.99134   11995
 3.0007   11931.7
 3.01006   11896.4
 3.01942   11858.1
 3.02878   11809.5
 3.03814   11747.5
 3.0475   11695.6
 3.05686   11634.9
 3.06622   11555.5
 3.07558   11523.4
 3.08494   11480.1
 3.0943   11420.9
 3.10366   11368.7
 3.11302   11330
 3.12238   11303
 3.13174   11255.7
 3.1411   11215.5
 3.15046   11156.4
 3.15982   11140.9
 3.16918   11093.2
 3.17854   11050
 3.1879   11044.6
 3.19726   11022
 3.20662   10997.8
 3.21598   10947.6
 3.22534   10939.4
 3.2347   10892.8
 3.24406   10854.5
 3.25342   10838.1
 3.26278   10818.1
 3.27214   10797.1
 3.2815   10757.4
 3.29086   10735.8
 3.30022   10738
 3.30958   10735.8
 3.31894   10695.9
 3.3283   10705.8
 3.33766   10700.3
 3.34702   10690.5
 3.35638   10673.6
 3.36574   10701.9
 3.3751   10685.3
 3.38446   10670.4
 3.39382   10678.9
 3.40318   10686.6
 3.41254   10686.6
 3.4219   10677.4
 3.43126   10689.8
 3.44062   10713.7
 3.44998   10722.4
 3.45934   10698.3
 3.4687   10716.4
 3.47806   10733.2
 3.48742   10703.4
 3.49678   10681.2
 3.50614   10713.5
 3.5155   10740
 3.52486   10680.1
 3.53422   10681.3
 3.54358   10697.5
 3.55294   10708.5
 3.5623   10657.8
 3.57166   10676.4
 3.58102   10713.4
 3.59038   10702.3
 3.59974   10664.7
 3.6091   10694.9
 3.61846   10701.2
 3.62782   10653.9
 3.63718   10608.4
 3.64654   10657.6
 3.6559   10685.2
 3.66526   10589.6
 3.67462   10504.4
 3.68398   10550.3
 3.69334   10530.1
 3.7027   10391.4
 3.71206   10360.7
 3.72142   10336.6
 3.73078   10266.4
 3.74014   10091.4
 3.7495   10088.4
 3.75886   10035.9
 3.76822   9966.66
 3.77758   9828.36
 3.78694   9840.27
 3.7963   9782.75
 3.80566   9604.26
 3.81502   9542.01
 3.82438   9568.66
 3.83374   9521.92
 3.8431   9317.24
 3.85246   9343.28
 3.86182   9291.56
 3.87118   9272.61
 3.88054   9146.96
 3.8899   9115.16
 3.89926   9107.22
 3.90862   8977.75
 3.91798   8896.12
 3.92734   8939.95
 3.9367   8829.61
 3.94606   8758.99
 3.95542   8770.97
 3.96478   8655.64
 3.97414   8595.31
 3.9835   8571.85
 3.99286   8507.98
 4.00222   8500.9
 4.01158   8463.92
 4.02094   8338.23
 4.0303   8382.86
 4.03966   8392.01
 4.04902   8294.56
 4.05838   8257.44
 4.06774   8238.74
 4.0771   8182.63
 4.08646   8139.24
 4.09582   8085.73
 4.10518   8082.38
 4.11454   8127.77
 4.1239   7968.38
 4.13326   7976.73
 4.14262   7985.39
 4.15198   7943.06
 4.16134   7858.94
 4.1707   7863.7
 4.18006   7884.86
 4.18942   7888.46
 4.19878   7815.54
 4.20814   7800.14
 4.2175   7915.81
 4.22686   7817.93
 4.23622   7735.16
 4.24558   7853.02
 4.25494   7887.09
 4.2643   7949.4
 4.27366   8049.17
 4.28302   8224.31
 4.29238   8369.4
 4.30174   8505.02
 4.3111   8589.02
 4.32046   8692.81
 4.32982   8783.08
 4.33918   8848.32
 4.34854   8968.76
 4.3579   9007.91
 4.36726   8903.92
 4.37662   8772.54
 4.38598   8606.19
 4.39534   8453.01
 4.4047   8295.52
 4.41406   8102.31
 4.42342   7973.74
 4.43278   7953.94
 4.44214   7836.32
 4.4515   7745.22
 4.46086   7718.55
 4.47022   7684.06
 4.47958   7630.71
 4.48894   7586.73
 4.4983   7527.9
 4.50766   7393.23
 4.51702   7232.7
 4.52638   7151.36
 4.53574   7099.19
 4.5451   7017.84
 4.55446   6967.31
 4.56382   6914.04
 4.57318   6895.26
 4.58254   6859.02
 4.5919   6822.21
 4.60126   6775.6
 4.61062   6786.84
 4.61998   6728.63
 4.62934   6703.26
 4.6387   6686.72
 4.64806   6650.17
 4.65742   6611.62
 4.66678   6602.29
 4.67614   6588.13
 4.6855   6576.93
 4.69486   6590.1
 4.70422   6610.17
 4.71358   6699.82
 4.72294   6831.78
 4.7323   6964.25
 4.74166   7107.92
 4.75102   7272.35
 4.76038   7422.15
 4.76974   7683.32
 4.7791   8073.81
 4.78846   8552.1
 4.79782   9000.16
 4.80718   9315.67
 4.81654   9325.37
 4.8259   9085.86
 4.83526   8651.88
 4.84462   8162.46
 4.85398   7706.28
 4.86334   7328.58
 4.8727   7115.41
 4.88206   7103.53
 4.89142   7221.01
 4.90078   7511.21
 4.91014   7846.72
 4.9195   8111.36
 4.92886   8312.34
 4.93822   8384.12
 4.94758   8451.48
 4.95694   8456.95
 4.9663   8439.6
 4.97566   8415.71
 4.98502   8355.93
 4.99438   8206.7
 5.00374   7940.56
 5.0131   7630.75
 5.02246   7295.96
 5.03182   6959.63
 5.04118   6714.04
 5.05054   6555.53
 5.0599   6473.68
 5.06926   6511.86
 5.07862   6608.55
 5.08798   6910.47
 5.09734   7561.53
 5.1067   9264.52
 5.11606   12498.6
 5.12542   20622.3
 5.13478   38894.3
 5.14414   50875.2
 5.1535   41169.7
 5.16286   25785.5
 5.17222   14607.2
 5.18158   9280.29
 5.19094   7229.9
 5.2003   6652.66
 5.20966   6380.94
 5.21902   6200.34
 5.22838   6084.89
 5.23774   6004.79
 5.2471   5967.24
 5.25646   5918.82
 5.26582   5876.42
 5.27518   5853.71
 5.28454   5845.93
 5.2939   5838.43
 5.30326   5809.56
 5.31262   5817.05
 5.32198   5818.57
 5.33134   5802.25
 5.3407   5806.19
 5.35006   5811.02
 5.35942   5795.84
 5.36878   5799.7
 5.37814   5808.7
 5.3875   5795.12
 5.39686   5828.96
 5.40622   5857.61
 5.41558   5854.78
 5.42494   5897.03
 5.4343   5947.65
 5.44366   5984.85
 5.45302   6036.76
 5.46238   6124.1
 5.47174   6256.05
 5.4811   6446.33
 5.49046   6688.93
 5.49982   7052.15
 5.50918   7657.46
 5.51854   8554.98
 5.5279   9755.33
 5.53726   11324.6
 5.54662   13059.3
 5.55598   14378.4
 5.56534   14894.1
 5.5747   14536.5
 5.58406   13576.9
 5.59342   12346.7
 5.60278   11140.5
 5.61214   10124.7
 5.6215   9313.86
 5.63086   8640.5
 5.64022   8094.28
 5.64958   7636.49
 5.65894   7232
 5.6683   6889.87
 5.67766   6603.86
 5.68702   6413.72
 5.69638   6261.02
 5.70574   6126.35
 5.7151   6080.52
 5.72446   6019.35
 5.73382   5975.23
 5.74318   5971.03
 5.75254   5973.28
 5.7619   5980.26
 5.77126   5948.06
 5.78062   5933.74
 5.78998   5896.09
 5.79934   5891.46
 5.8087   5875.18
 5.81806   5848.73
 5.82742   5850.76
 5.83678   5872.13
 5.84614   5903.29
 5.8555   5912.1
 5.86486   5977.35
 5.87422   6035.88
 5.88358   6125.87
 5.89294   6251.02
 5.9023   6536.11
 5.91166   7168.58
 5.92102   8481.34
 5.93038   11091.8
 5.93974   13116.2
 5.9491   12805.8
 5.95846   10652.6
 5.96782   8589.18
 5.97718   7606.11
 5.98654   7266.32
 5.9959   7056.8
 6.00526   6896.6
 6.01462   6753.58
 6.02398   6595.34
 6.03334   6434.57
 6.0427   6277.54
 6.05206   6191
 6.06142   6094.04
 6.07078   5993.96
 6.08014   5949.01
 6.0895   5921.9
 6.09886   5873.26
 6.10822   5838.91
 6.11758   5824.69
 6.12694   5819.32
 6.1363   5804.99
 6.14566   5790.24
 6.15502   5787.28
 6.16438   5798.19
 6.17374   5786.12
 6.1831   5781.26
 6.19246   5801.64
 6.20182   5822.47
 6.21118   5795.49
 6.22054   5784.88
 6.2299   5822.9
 6.23926   5829.72
 6.24862   5821.88
 6.25798   5831.23
 6.26734   5826.46
 6.2767   5862.16
 6.28606   5836.47
 6.29542   5851.12
 6.30478   5862.02
 6.31414   5867.5
 6.3235   5856.46
 6.33286   5877.51
 6.34222   5880.46
 6.35158   5887.58
 6.36094   5877.77
 6.3703   5884.09
 6.37966   5900.51
 6.38902   5904.77
 6.39838   5902.95
 6.40774   5924.14
 6.4171   5949
 6.42646   5940.71
 6.43582   5956.02
 6.44518   5988.14
 6.45454   5954.02
 6.4639   5979.59
 6.47326   5970.34
 6.48262   5977
 6.49198   5991.05
 6.50134   5977.99
 6.5107   5995.12
 6.52006   6043.55
 6.52942   6031.81
 6.53878   6057.47
 6.54814   6088.73
 6.5575   6102.66
 6.56686   6110.52
 6.57622   6109.84
 6.58558   6150.31
 6.59494   6180.65
 6.6043   6191.85
 6.61366   6196.78
 6.62302   6200.4
 6.63238   6247.79
 6.64174   6225.94
 6.6511   6247.44
 6.66046   6296.65
 6.66982   6301.14
 6.67918   6317.81
 6.68854   6324.98
 6.6979   6343.52
 6.70726   6423.19
 6.71662   6427.43
 6.72598   6440.34
 6.73534   6525.38
 6.7447   6552.67
 6.75406   6568.58
 6.76342   6582.45
 6.77278   6656.53
 6.78214   6652.76
 6.7915   6664.31
 6.80086   6643.87
 6.81022   6675.69
 6.81958   6697.24
 6.82894   6703.8
 6.8383   6757.15
 6.84766   6871.56
 6.85702   6863.81
 6.86638   6929.57
 6.87574   7052.85
 6.8851   7122.65
 6.89446   7222.88
 6.90382   7372.39
 6.91318   7485.81
 6.92254   7653.58
 6.9319   7761.41
 6.94126   7833.48
 6.95062   7933.47
 6.95998   8034.7
 6.96934   7988.82
 6.9787   8069.97
 6.98806   8135.64
 6.99742   8144.26
 7.00678   8163.94
 7.01614   8121.12
 7.0255   8092.26
 7.03486   7981.62
 7.04422   7864.48
 7.05358   7730.68
 7.06294   7662.46
 7.0723   7491.48
 7.08166   7287.88
 7.09102   7090.5
 7.10038   6970.3
 7.10974   6856.85
 7.1191   6812.43
 7.12846   6748.74
 7.13782   6707.11
 7.14718   6691.29
 7.15654   6676.08
 7.1659   6640.02
 7.17526   6668.68
 7.18462   6634.97
 7.19398   6611.35
 7.20334   6601.97
 7.2127   6611.71
 7.22206   6576.29
 7.23142   6577.52
 7.24078   6587.62
 7.25014   6604.68
 7.2595   6597.02
 7.26886   6603.44
 7.27822   6609.39
 7.28758   6614.06
 7.29694   6587.45
 7.3063   6624.33
 7.31566   6654.03
 7.32502   6675.81
 7.33438   6701.9
 7.34374   6755.62
 7.3531   6793.41
 7.36246   6832.58
 7.37182   6852.56
 7.38118   6868.83
 7.39054   6864.08
 7.3999   6895.28
 7.40926   6888.63
 7.41862   6902.88
 7.42798   6938.93
 7.43734   6964.82
 7.4467   6986.25
 7.45606   7037.77
 7.46542   7077.44
 7.47478   7125.1
 7.48414   7166.65
 7.4935   7224.05
 7.50286   7286.37
 7.51222   7372.65
 7.52158   7443.29
 7.53094   7520.63
 7.5403   7620.56
 7.54966   7668.84
 7.55902   7703.59
 7.56838   7724.7
 7.57774   7732.53
 7.5871   7693.57
 7.59646   7629.32
 7.60582   7497.46
 7.61518   7320.7
 7.62454   7075.21
 7.6339   6856.82
 7.64326   6636.28
 7.65262   6494.81
 7.66198   6382.39
 7.67134   6295.83
 7.6807   6240.45
 7.69006   6165.26
 7.69942   6127.57
 7.70878   6096.95
 7.71814   6061.97
 7.7275   6032.27
 7.73686   6007.18
 7.74622   5973.2
 7.75558   5932.99
 7.76494   5913.43
 7.7743   5913.69
 7.78366   5886.59
 7.79302   5859.13
 7.80238   5838.5
 7.81174   5828.83
 7.8211   5801.57
 7.83046   5766.52
 7.83982   5770.2
 7.84918   5766.48
 7.85854   5723.45
 7.8679   5688.36
 7.87726   5704.42
 7.88662   5688.81
 7.89598   5669.6
 7.90534   5642.45
 7.9147   5640.48
 7.92406   5633.24
 7.93342   5618.03
 7.94278   5579.95
 7.95214   5582.12
 7.9615   5606.02
 7.97086   5576.83
 7.98022   5547.94
 7.98958   5544.85
 7.99894   5552.18
 8.0083   5529.39
 8.01766   5517.72
 8.02702   5510.5
 8.03638   5539.16
 8.04574   5522.75
 8.0551   5529.46
 8.06446   5586.27
 8.07382   5667.34
 8.08318   5740.2
 8.09254   5809.72
 8.1019   5952.36
 8.11126   6023.7
 8.12062   6038.53
 8.12998   6070.09
 8.13934   6100.09
 8.1487   6119.07
 8.15806   6155.92
 8.16742   6195.49
 8.17678   6311.59
 8.18614   6446.44
 8.1955   6578.67
 8.20486   6773.97
 8.21422   6966.94
 8.22358   7133.95
 8.23294   7247.34
 8.2423   7300.76
 8.25166   7242.12
 8.26102   7147.94
 8.27038   6995.5
 8.27974   6822.23
 8.2891   6620.57
 8.29846   6423.79
 8.30782   6218.73
 8.31718   6043.68
 8.32654   5855.28
 8.3359   5744.2
 8.34526   5656.49
 8.35462   5638.65
 8.36398   5635.15
 8.37334   5815.39
 8.3827   6300.63
 8.39206   7069.28
 8.40142   8187.83
 8.41078   8556.98
 8.42014   7943.56
 8.4295   6828.44
 8.43886   6338.05
 8.44822   6074.98
 8.45758   6062.31
 8.46694   6119.92
 8.4763   6188.76
 8.48566   6254.95
 8.49502   6304.66
 8.50438   6341.81
 8.51374   6356.27
 8.5231   6382.42
 8.53246   6388.56
 8.54182   6382.47
 8.55118   6374.9
 8.56054   6330.16
 8.5699   6270.22
 8.57926   6191.02
 8.58862   6114.6
 8.59798   6020.82
 8.60734   5930.54
 8.6167   5873.56
 8.62606   5788.73
 8.63542   5723.79
 8.64478   5673.88
 8.65414   5638.75
 8.6635   5600.79
 8.67286   5568.9
 8.68222   5560.43
 8.69158   5548.13
 8.70094   5531.53
 8.7103   5524.61
 8.71966   5523.71
 8.72902   5520.85
 8.73838   5511.54
 8.74774   5503.1
 8.7571   5504.22
 8.76646   5485.13
 8.77582   5470.12
 8.78518   5455.07
 8.79454   5431.24
 8.8039   5411.84
 8.81326   5388.02
 8.82262   5349.67
 8.83198   5310.5
 8.84134   5274.09
 8.8507   5225.58
 8.86006   5159.08
 8.86942   5106.73
 8.87878   5068.65
 8.88814   5032.72
 8.8975   5006.22
 8.90686   4986.34
 8.91622   4982.06
 8.92558   4978.43
 8.93494   4959.05
 8.9443   4965.7
 8.95366   4967.38
 8.96302   4972.88
 8.97238   4967.73
 8.98174   4970.41
 8.9911   4966.04
 9.00046   4966.41
 9.00982   4945.32
 9.01918   4941.58
 9.02854   4921.03
 9.0379   4913.25
 9.04726   4888.09
 9.05662   4893.21
 9.06598   4891.37
 9.07534   4884.64
 9.0847   4880.96
 9.09406   4889.98
 9.10342   4896.11
 9.11278   4904.86
 9.12214   4925.08
 9.1315   4948.38
 9.14086   4953.66
 9.15022   4954.6
 9.15958   4970.07
 9.16894   4984.06
 9.1783   5005.69
 9.18766   5039.2
 9.19702   5062.73
 9.20638   5106.07
 9.21574   5156.22
 9.2251   5210.88
 9.23446   5268.25
 9.24382   5348.15
 9.25318   5427.23
 9.26254   5506.99
 9.2719   5588.74
 9.28126   5648.73
 9.29062   5692.71
 9.29998   5714.8
 9.30934   5737.26
 9.3187   5724.36
 9.32806   5722.33
 9.33742   5709.74
 9.34678   5689.65
 9.35614   5660.21
 9.3655   5632.59
 9.37486   5577.83
 9.38422   5528.58
 9.39358   5477.72
 9.40294   5436.85
 9.4123   5383.51
 9.42166   5345.32
 9.43102   5318.08
 9.44038   5291.88
 9.44974   5275.75
 9.4591   5271.89
 9.46846   5289.09
 9.47782   5295.46
 9.48718   5314.3
 9.49654   5316.08
 9.5059   5316.97
 9.51526   5316.95
 9.52462   5299.56
 9.53398   5287.73
 9.54334   5289.91
 9.5527   5293.18
 9.56206   5306.34
 9.57142   5301.26
 9.58078   5300.89
 9.59014   5307.98
 9.5995   5310.95
 9.60886   5318.08
 9.61822   5307.55
 9.62758   5290.52
 9.63694   5265.29
 9.6463   5237.37
 9.65566   5228.18
 9.66502   5193.54
 9.67438   5177.24
 9.68374   5149.59
 9.6931   5140.94
 9.70246   5108.32
 9.71182   5089.77
 9.72118   5053.96
 9.73054   5040.27
 9.7399   5028.62
 9.74926   5034.62
 9.75862   5030.5
 9.76798   5047.88
 9.77734   5088.51
 9.7867   5126.88
 9.79606   5192.47
 9.80542   5300.74
 9.81478   5470.2
 9.82414   5800.87
 9.8335   6569.84
 9.84286   8213.04
 9.85222   10622.9
 9.86158   12531.9
 9.87094   11693.2
 9.8803   9297.65
 9.88966   7313.9
 9.89902   6279.09
 9.90838   5809.47
 9.91774   5638.51
 9.9271   5566.73
 9.93646   5505.28
 9.94582   5479.15
 9.95518   5466.55
 9.96454   5453.14
 9.9739   5438.86
 9.98326   5424.62
 9.99262   5414.41
 10.002   5397.22
 10.0113   5372.71
 10.0207   5348.88
 10.0301   5312.31
 10.0394   5272.26
 10.0488   5244.47
 10.0581   5228.64
 10.0675   5203.46
 10.0769   5207.31
 10.0862   5175.83
 10.0956   5177.36
 10.1049   5176.27
 10.1143   5163.87
 10.1237   5164.38
 10.133   5177.36
 10.1424   5197.26
 10.1517   5202.54
 10.1611   5209.93
 10.1705   5240.33
 10.1798   5234.77
 10.1892   5226.94
 10.1985   5259.33
 10.2079   5274.42
 10.2173   5274
 10.2266   5278.87
 10.236   5286.71
 10.2453   5305.99
 10.2547   5345.62
 10.2641   5464.42
 10.2734   5779.95
 10.2828   6518.01
 10.2921   7733.28
 10.3015   8519.14
 10.3109   8140.48
 10.3202   6850.9
 10.3296   5961.07
 10.3389   5438.28
 10.3483   5243.21
 10.3577   5162.13
 10.367   5121.52
 10.3764   5115.28
 10.3857   5108.41
 10.3951   5099.84
 10.4045   5092.41
 10.4138   5094.56
 10.4232   5114.79
 10.4325   5090.86
 10.4419   5123.75
 10.4513   5121.96
 10.4606   5128.21
 10.47   5136.92
 10.4793   5163.68
 10.4887   5154.05
 10.4981   5165.49
 10.5074   5180.02
 10.5168   5175.98
 10.5261   5163.36
 10.5355   5167.06
 10.5449   5158.4
 10.5542   5134.54
 10.5636   5109.19
 10.5729   5110.52
 10.5823   5089.69
 10.5917   5076.43
 10.601   5055.66
 10.6104   5050.47
 10.6197   5047.91
 10.6291   5040.01
 10.6385   5021.85
 10.6478   5014.23
 10.6572   5017.97
 10.6665   5013.84
 10.6759   5006.55
 10.6853   5001.4
 10.6946   5010.43
 10.704   5009.73
 10.7133   5038.84
 10.7227   5030.31
 10.7321   5036.05
 10.7414   5064.29
 10.7508   5094.1
 10.7601   5080.36
 10.7695   5083.28
 10.7789   5094.41
 10.7882   5084.18
 10.7976   5079.16
 10.8069   5047.34
 10.8163   5046.42
 10.8257   5042.11
 10.835   5033.02
 10.8444   5031.8
 10.8537   5009.65
 10.8631   5011.23
 10.8725   4999.27
 10.8818   4977.76
 10.8912   4952.69
 10.9005   4933.87
 10.9099   4918.37
 10.9193   4892.57
 10.9286   4871.4
 10.938   4861.29
 10.9473   4841.92
 10.9567   4822.96
 10.9661   4823.45
 10.9754   4810.99
 10.9848   4794.74
 10.9941   4782.3
 11.0035   4773.15
 11.0129   4786.85
 11.0222   4787.37
 11.0316   4785.63
 11.0409   4799.99
 11.0503   4817.03
 11.0597   4826.92
 11.069   4833.56
 11.0784   4859.78
 11.0877   4883.02
 11.0971   4907.01
 11.1065   4950.11
 11.1158   4991.74
 11.1252   5019.53
 11.1345   5038.44
 11.1439   5030.28
 11.1533   5019.68
 11.1626   4996.02
 11.172   4981.63
 11.1813   4951.32
 11.1907   4910.08
 11.2001   4873.79
 11.2094   4865.16
 11.2188   4851.71
 11.2281   4837.55
 11.2375   4822.15
 11.2469   4806.86
 11.2562   4795.08
 11.2656   4775.69
 11.2749   4754.94
 11.2843   4732.26
 11.2937   4727.99
 11.303   4709.14
 11.3124   4686.75
 11.3217   4669.4
 11.3311   4658.89
 11.3405   4639.61
 11.3498   4616.69
 11.3592   4601.83
 11.3685   4586.87
 11.3779   4580.5
 11.3873   4561.52
 11.3966   4541.97
 11.406   4544.56
 11.4153   4536.84
 11.4247   4528.48
 11.4341   4510.32
 11.4434   4517.05
 11.4528   4509.04
 11.4621   4497.1
 11.4715   4486.88
 11.4809   4490.38
 11.4902   4486.09
 11.4996   4492.52
 11.5089   4474.03
 11.5183   4461.67
 11.5277   4463.06
 11.537   4440.36
 11.5464   4426.22
 11.5557   4405.93
 11.5651   4407.62
 11.5745   4402.54
 11.5838   4394.16
 11.5932   4387.18
 11.6025   4381.31
 11.6119   4382.33
 11.6213   4384.48
 11.6306   4374.4
 11.64   4377.65
 11.6493   4370.33
 11.6587   4351.21
 11.6681   4341.58
 11.6774   4341.55
 11.6868   4334.23
 11.6961   4333.52
 11.7055   4329.74
 11.7149   4325.99
 11.7242   4320.53
 11.7336   4329.87
 11.7429   4317.22
 11.7523   4325.59
 11.7617   4328.38
 11.771   4325.75
 11.7804   4325.57
 11.7897   4338.64
 11.7991   4330.94
 11.8085   4335.93
 11.8178   4344.12
 11.8272   4348.72
 11.8365   4348.49
 11.8459   4368.48
 11.8553   4376.97
 11.8646   4409.9
 11.874   4485.57
 11.8833   4620.07
 11.8927   4819.59
 11.9021   4969.78
 11.9114   4927.95
 11.9208   4749.3
 11.9301   4595.08
 11.9395   4501.34
 11.9489   4468.57
 11.9582   4464.31
 11.9676   4477.4
 11.9769   4471.45
 11.9863   4490.23
 11.9957   4490.99
 12.005   4502.19
 12.0144   4506.5
 12.0237   4485.63
 12.0331   4486.74
 12.0425   4486.33
 12.0518   4488.98
 12.0612   4478.28
 12.0705   4482.3
 12.0799   4481.94
 12.0893   4470.05
 12.0986   4469.67
 12.108   4448.79
 12.1173   4444.48
 12.1267   4409.5
 12.1361   4377.4
 12.1454   4345.26
 12.1548   4309.46
 12.1641   4268.14
 12.1735   4233.71
 12.1829   4201.52
 12.1922   4179.79
 12.2016   4152.2
 12.2109   4144.47
 12.2203   4124.32
 12.2297   4113.16
 12.239   4105.1
 12.2484   4096.25
 12.2577   4090.47
 12.2671   4087.29
 12.2765   4089.82
 12.2858   4089.35
 12.2952   4084.48
 12.3045   4084.34
 12.3139   4092.6
 12.3233   4083.98
 12.3326   4082.23
 12.342   4093.55
 12.3513   4093.25
 12.3607   4099.71
 12.3701   4103.85
 12.3794   4109.78
 12.3888   4123.25
 12.3981   4132.16
 12.4075   4134.51
 12.4169   4135.58
 12.4262   4145.45
 12.4356   4139.47
 12.4449   4151.21
 12.4543   4152.59
 12.4637   4170.06
 12.473   4187.93
 12.4824   4189.29
 12.4917   4185.69
 12.5011   4183.6
 12.5105   4188.98
 12.5198   4178.88
 12.5292   4167.19
 12.5385   4166.79
 12.5479   4171.96
 12.5573   4173.2
 12.5666   4175.06
 12.576   4185.15
 12.5853   4197.85
 12.5947   4203.5
 12.6041   4224.27
 12.6134   4235.83
 12.6228   4245.95
 12.6321   4254.93
 12.6415   4252.94
 12.6509   4243.1
 12.6602   4249.9
 12.6696   4239.49
 12.6789   4231.67
 12.6883   4216.5
 12.6977   4214.6