File: docs/GuiliangJun25_tutorial_output/integrals/MA2b-00004_base.chi
MA2b-00004.tif Azm= 0.00
2-Theta Angle (Degrees)
Intensity
       2500
 1.00702   7912.27
 1.01638   7851.68
 1.02574   7791.69
 1.0351   7729.98
 1.04446   7682.13
 1.05382   7665.07
 1.06318   7587.16
 1.07254   7539.91
 1.0819   7513.49
 1.09126   7456.96
 1.10062   7433.78
 1.10998   7420.72
 1.11934   7371.56
 1.1287   7340.42
 1.13806   7299.73
 1.14742   7269.87
 1.15678   7260.78
 1.16614   7237.03
 1.1755   7173.45
 1.18486   7191.17
 1.19422   7175.44
 1.20358   7178.8
 1.21294   7115.42
 1.2223   7144.42
 1.23166   7135.02
 1.24102   7099.6
 1.25038   7121.17
 1.25974   7130.66
 1.2691   7104.71
 1.27846   7083.25
 1.28782   7132.19
 1.29718   7130.01
 1.30654   7137.55
 1.3159   7100.56
 1.32526   7144.63
 1.33462   7144.59
 1.34398   7174.53
 1.35334   7141.37
 1.3627   7180.76
 1.37206   7186.76
 1.38142   7185.69
 1.39078   7244.15
 1.40014   7263.72
 1.4095   7308.99
 1.41886   7355.74
 1.42822   7377.07
 1.43758   7400.03
 1.44694   7502.72
 1.4563   7526.8
 1.46566   7580.52
 1.47502   7592.72
 1.48438   7650.48
 1.49374   7715.53
 1.5031   7755.87
 1.51246   7780.68
 1.52182   7805.07
 1.53118   7792.65
 1.54054   7779.13
 1.5499   7790.7
 1.55926   7777.68
 1.56862   7739.98
 1.57798   7714.62
 1.58734   7693.37
 1.5967   7707.98
 1.60606   7715.57
 1.61542   7725.86
 1.62478   7713.24
 1.63414   7706.96
 1.6435   7714.73
 1.65286   7730.38
 1.66222   7713.79
 1.67158   7713.13
 1.68094   7736.78
 1.6903   7714.92
 1.69966   7716.3
 1.70902   7732.46
 1.71838   7723.44
 1.72774   7743.67
 1.7371   7737.63
 1.74646   7738.72
 1.75582   7786.77
 1.76518   7780.71
 1.77454   7772.78
 1.7839   7832.43
 1.79326   7837.07
 1.80262   7862.02
 1.81198   7914.35
 1.82134   7935.2
 1.8307   7976.12
 1.84006   7998.19
 1.84942   8023.53
 1.85878   8093.11
 1.86814   8115.87
 1.8775   8141.11
 1.88686   8218.41
 1.89622   8254.55
 1.90558   8296.05
 1.91494   8336.81
 1.9243   8390.72
 1.93366   8437.56
 1.94302   8507.72
 1.95238   8528.03
 1.96174   8637.36
 1.9711   8799.13
 1.98046   8745.43
 1.98982   8736.67
 1.99918   8790.55
 2.00854   8838.99
 2.0179   8902.54
 2.02726   8939.17
 2.03662   9003.22
 2.04598   9056.87
 2.05534   9120.3
 2.0647   9192.81
 2.07406   9326.94
 2.08342   9443.99
 2.09278   9719.44
 2.10214   10191.7
 2.1115   11017.7
 2.12086   12748.6
 2.13022   16060
 2.13958   20745.6
 2.14894   25051.9
 2.1583   26619.4
 2.16766   25817.8
 2.17702   23762.5
 2.18638   21289.5
 2.19574   18710.9
 2.2051   16335.9
 2.21446   14673.1
 2.22382   13622.4
 2.23318   12957.7
 2.24254   12457.1
 2.2519   11861.7
 2.26126   11347.8
 2.27062   10871.1
 2.27998   10613.3
 2.28934   10533.9
 2.2987   10481.9
 2.30806   10480.8
 2.31742   10502.7
 2.32678   10546.3
 2.33614   10590.1
 2.3455   10629.4
 2.35486   10707.8
 2.36422   10750.5
 2.37358   10818.6
 2.38294   10862.4
 2.3923   10955
 2.40166   11018.2
 2.41102   11090.5
 2.42038   11169.4
 2.42974   11220.7
 2.4391   11281.9
 2.44846   11377.2
 2.45782   11423
 2.46718   11509.6
 2.47654   11578.8
 2.4859   11649.6
 2.49526   11739.3
 2.50462   11805.7
 2.51398   11894.1
 2.52334   11952.2
 2.5327   12029.8
 2.54206   12108.6
 2.55142   12151.1
 2.56078   12213.8
 2.57014   12304.4
 2.5795   12342.7
 2.58886   12402.5
 2.59822   12472.5
 2.60758   12528.2
 2.61694   12550.1
 2.6263   12595.8
 2.63566   12648.9
 2.64502   12679.6
 2.65438   12729
 2.66374   12742.1
 2.6731   12802.7
 2.68246   12807.7
 2.69182   12826.7
 2.70118   12871.4
 2.71054   12883.1
 2.7199   12861.6
 2.72926   12865.1
 2.73862   12883
 2.74798   12842.1
 2.75734   12831.6
 2.7667   12827.2
 2.77606   12822.7
 2.78542   12820.2
 2.79478   12782.2
 2.80414   12781
 2.8135   12739.8
 2.82286   12702
 2.83222   12678.4
 2.84158   12629.1
 2.85094   12633.3
 2.8603   12586.5
 2.86966   12558.6
 2.87902   12533.8
 2.88838   12485.2
 2.89774   12455.3
 2.9071   12417
 2.91646   12367.2
 2.92582   12335.5
 2.93518   12300.7
 2.94454   12283.9
 2.9539   12223.8
 2.96326   12167.7
 2.97262   12139.8
 2.98198   12080.8
 2.99134   12037.2
 3.0007   11981.9
 3.01006   11906.5
 3.01942   11879.4
 3.02878   11839.8
 3.03814   11787.3
 3.0475   11712.4
 3.05686   11639.8
 3.06622   11579.6
 3.07558   11541.9
 3.08494   11513.4
 3.0943   11457.8
 3.10366   11396.9
 3.11302   11347.7
 3.12238   11317.1
 3.13174   11266.8
 3.1411   11246.6
 3.15046   11213.7
 3.15982   11164.8
 3.16918   11136.2
 3.17854   11124.9
 3.1879   11103.9
 3.19726   11071.2
 3.20662   11028.1
 3.21598   10971.7
 3.22534   10971.5
 3.2347   10922.9
 3.24406   10892.6
 3.25342   10882
 3.26278   10879.1
 3.27214   10828
 3.2815   10801
 3.29086   10786
 3.30022   10778.3
 3.30958   10773.5
 3.31894   10776.6
 3.3283   10760.2
 3.33766   10753.7
 3.34702   10724.9
 3.35638   10721
 3.36574   10745.6
 3.3751   10721.8
 3.38446   10729.1
 3.39382   10746.1
 3.40318   10764.6
 3.41254   10772.8
 3.4219   10773.4
 3.43126   10751.3
 3.44062   10793.4
 3.44998   10827.8
 3.45934   10799.6
 3.4687   10792.1
 3.47806   10855.3
 3.48742   10826.1
 3.49678   10772
 3.50614   10828.6
 3.5155   10846.8
 3.52486   10794.9
 3.53422   10798.5
 3.54358   10852.5
 3.55294   10832.4
 3.5623   10834.9
 3.57166   10855.5
 3.58102   10881.3
 3.59038   10888.1
 3.59974   10847.3
 3.6091   10924.3
 3.61846   10964
 3.62782   10919.7
 3.63718   10922.3
 3.64654   11010.2
 3.6559   11084.2
 3.66526   11058.3
 3.67462   11078
 3.68398   11292.9
 3.69334   11291.5
 3.7027   11294.4
 3.71206   11359.2
 3.72142   11536.9
 3.73078   11420.8
 3.74014   11465.3
 3.7495   11529.5
 3.75886   11578.1
 3.76822   11735.8
 3.77758   11692.8
 3.78694   11812.4
 3.7963   12098.8
 3.80566   12021.1
 3.81502   12030.4
 3.82438   12558.5
 3.83374   12615.6
 3.8431   12827.8
 3.85246   13397.6
 3.86182   13869.6
 3.87118   14213.7
 3.88054   14953.4
 3.8899   15685.1
 3.89926   16923.5
 3.90862   18626.8
 3.91798   23315.3
 3.92734   34743.9
 3.9367   55343.9
 3.94606   75122.9
 3.95542   79756.9
 3.96478   95010.3
 3.97414   119384
 3.9835   102199
 3.99286   84109.8
 4.00222   49176.9
 4.01158   30544.3
 4.02094   20462.4
 4.0303   17641.3
 4.03966   15717
 4.04902   13921.6
 4.05838   13140.3
 4.06774   12762.9
 4.0771   12338.6
 4.08646   12252.6
 4.09582   11797.5
 4.10518   11552.3
 4.11454   11498.1
 4.1239   11051.7
 4.13326   10761.3
 4.14262   10820.9
 4.15198   10501.7
 4.16134   10259.1
 4.1707   10116.8
 4.18006   10058.3
 4.18942   9852.55
 4.19878   9651.71
 4.20814   9510.3
 4.2175   9500.59
 4.22686   9222.62
 4.23622   9055.29
 4.24558   9065.98
 4.25494   9001.51
 4.2643   9093.33
 4.27366   9273.03
 4.28302   9411.12
 4.29238   9703.68
 4.30174   9782.98
 4.3111   9725.8
 4.32046   9647.97
 4.32982   9404.74
 4.33918   9194.04
 4.34854   9150.5
 4.3579   9038.69
 4.36726   8839.47
 4.37662   8660.6
 4.38598   8487.43
 4.39534   8316.84
 4.4047   8169.8
 4.41406   7982.02
 4.42342   7887.85
 4.43278   7862.13
 4.44214   7731.16
 4.4515   7637.87
 4.46086   7623.78
 4.47022   7591.08
 4.47958   7510.02
 4.48894   7470.46
 4.4983   7433.3
 4.50766   7326.05
 4.51702   7183.01
 4.52638   7140.94
 4.53574   7094.29
 4.5451   7027.44
 4.55446   6967.16
 4.56382   6941.26
 4.57318   6937.84
 4.58254   6889.05
 4.5919   6844.68
 4.60126   6819.12
 4.61062   6777.76
 4.61998   6745.12
 4.62934   6734.55
 4.6387   6719.67
 4.64806   6678.48
 4.65742   6628.97
 4.66678   6630.88
 4.67614   6618.99
 4.6855   6576.85
 4.69486   6609.59
 4.70422   6608.13
 4.71358   6659.46
 4.72294   6746.57
 4.7323   6817.79
 4.74166   6915.76
 4.75102   7028.91
 4.76038   7144.99
 4.76974   7327.73
 4.7791   7621.52
 4.78846   8005.43
 4.79782   8423.72
 4.80718   8830.57
 4.81654   9095.17
 4.8259   9258.17
 4.83526   9214.88
 4.84462   8936.06
 4.85398   8472.76
 4.86334   7952.62
 4.8727   7526.89
 4.88206   7317.38
 4.89142   7280.01
 4.90078   7375.42
 4.91014   7571.92
 4.9195   7773.44
 4.92886   7955.84
 4.93822   8129.57
 4.94758   8325.85
 4.95694   8546.69
 4.9663   8817.75
 4.97566   9075.9
 4.98502   9280.06
 4.99438   9292.73
 5.00374   9087.14
 5.0131   8673.22
 5.02246   8181.25
 5.03182   7648.1
 5.04118   7243.45
 5.05054   6939.57
 5.0599   6753.87
 5.06926   6702.45
 5.07862   6795.91
 5.08798   7047.19
 5.09734   7710.72
 5.1067   9385.09
 5.11606   12647.9
 5.12542   20800.6
 5.13478   39150.5
 5.14414   51112.9
 5.1535   41342.7
 5.16286   25884.9
 5.17222   14671.6
 5.18158   9359.39
 5.19094   7278.57
 5.2003   6712.9
 5.20966   6410.31
 5.21902   6256.84
 5.22838   6128.57
 5.23774   6086.86
 5.2471   6015.89
 5.25646   5992.95
 5.26582   5954.43
 5.27518   5933.96
 5.28454   5894.73
 5.2939   5896.38
 5.30326   5913.51
 5.31262   5884.14
 5.32198   5851.48
 5.33134   5873.02
 5.3407   5874.02
 5.35006   5836.4
 5.35942   5835
 5.36878   5847.69
 5.37814   5861.82
 5.3875   5828.24
 5.39686   5856.81
 5.40622   5882.01
 5.41558   5901.47
 5.42494   5899.83
 5.4343   5939.57
 5.44366   5981.37
 5.45302   6038.23
 5.46238   6068.46
 5.47174   6161.19
 5.4811   6309.83
 5.49046   6469.87
 5.49982   6686.16
 5.50918   7073.62
 5.51854   7645.37
 5.5279   8420.79
 5.53726   9444.29
 5.54662   10582.1
 5.55598   11564.7
 5.56534   11983
 5.5747   11890.5
 5.58406   11409.8
 5.59342   10766.6
 5.60278   10417.2
 5.61214   9295.52
 5.6215   8565.17
 5.63086   8041.24
 5.64022   7599.92
 5.64958   7248.96
 5.65894   6984.57
 5.6683   6741.37
 5.67766   6524.88
 5.68702   6386.97
 5.69638   6285.1
 5.70574   6191.9
 5.7151   6105.9
 5.72446   6097.67
 5.73382   6089.79
 5.74318   6081.11
 5.75254   6062.5
 5.7619   6093.05
 5.77126   6096.96
 5.78062   6031.67
 5.78998   6031.28
 5.79934   6034.57
 5.8087   6033.63
 5.81806   6008.8
 5.82742   6025.36
 5.83678   6060.08
 5.84614   6104
 5.8555   6139.42
 5.86486   6218.16
 5.87422   6336.01
 5.88358   6477.84
 5.89294   6651.8
 5.9023   7007.9
 5.91166   7738.76
 5.92102   9168.08
 5.93038   11942.6
 5.93974   14125.4
 5.9491   13964.6
 5.95846   11915.1
 5.96782   9945.68
 5.97718   8964.63
 5.98654   8590.53
 5.9959   8257.61
 6.00526   7930.07
 6.01462   7610.98
 6.02398   7308.98
 6.03334   6967.5
 6.0427   6719.4
 6.05206   6532.47
 6.06142   6377.04
 6.07078   6212.35
 6.08014   6129.6
 6.0895   6064.94
 6.09886   6006.94
 6.10822   5949.38
 6.11758   5932.73
 6.12694   5913.05
 6.1363   5894.91
 6.14566   5860.77
 6.15502   5859.12
 6.16438   5866.71
 6.17374   5849.62
 6.1831   5837.59
 6.19246   5840.65
 6.20182   5864.89
 6.21118   5854.44
 6.22054   5857.23
 6.2299   5872.18
 6.23926   5872.77
 6.24862   5876.66
 6.25798   5872.23
 6.26734   5886.11
 6.2767   5898.79
 6.28606   5892.64
 6.29542   5908.36
 6.30478   5926.88
 6.31414   5924.77
 6.3235   5911.79
 6.33286   5938.38
 6.34222   5959.39
 6.35158   5957.54
 6.36094   5947.9
 6.3703   5959.82
 6.37966   5975.25
 6.38902   5987.68
 6.39838   5989.07
 6.40774   6035.08
 6.4171   6076.26
 6.42646   6076.03
 6.43582   6095.52
 6.44518   6145.06
 6.45454   6158.22
 6.4639   6177.46
 6.47326   6197.59
 6.48262   6231.22
 6.49198   6259.52
 6.50134   6241.66
 6.5107   6269.29
 6.52006   6306.16
 6.52942   6303.71
 6.53878   6330.21
 6.54814   6375.36
 6.5575   6418.24
 6.56686   6418.36
 6.57622   6451.03
 6.58558   6501.63
 6.59494   6570.44
 6.6043   6646.99
 6.61366   6684.58
 6.62302   6727.66
 6.63238   6828.17
 6.64174   6858.12
 6.6511   6916.47
 6.66046   7023.8
 6.66982   7019.73
 6.67918   7081.91
 6.68854   7064.79
 6.6979   7082.15
 6.70726   7169.52
 6.71662   7208.12
 6.72598   7243.01
 6.73534   7385.98
 6.7447   7403.92
 6.75406   7456.75
 6.76342   7603.53
 6.77278   7793.03
 6.78214   7883.25
 6.7915   8031.44
 6.80086   8194.27
 6.81022   8405.51
 6.81958   8753.1
 6.82894   9367.79
 6.8383   10586.5
 6.84766   16820.3
 6.85702   19749
 6.86638   33358.7
 6.87574   40678.1
 6.8851   35916.2
 6.89446   27680.5
 6.90382   17079.7
 6.91318   12427.1
 6.92254   10737.7
 6.9319   10214.2
 6.94126   9850.38
 6.95062   9902.08
 6.95998   9700.1
 6.96934   9358.36
 6.9787   9385.68
 6.98806   9258.93
 6.99742   9045.99
 7.00678   8977.91
 7.01614   8785.89
 7.0255   8602.55
 7.03486   8482.04
 7.04422   8259.04
 7.05358   8146.6
 7.06294   8115.29
 7.0723   7925.61
 7.08166   7696.75
 7.09102   7523.19
 7.10038   7452.37
 7.10974   7340.05
 7.1191   7276.42
 7.12846   7211.89
 7.13782   7189.49
 7.14718   7136.96
 7.15654   7077.43
 7.1659   7055.46
 7.17526   7059.43
 7.18462   6997.38
 7.19398   6969.57
 7.20334   6910.61
 7.2127   6904.61
 7.22206   6872.34
 7.23142   6846.58
 7.24078   6836.9
 7.25014   6861.86
 7.2595   6841.69
 7.26886   6835.72
 7.27822   6830.74
 7.28758   6830.58
 7.29694   6810.6
 7.3063   6807.66
 7.31566   6821.23
 7.32502   6836.6
 7.33438   6865.7
 7.34374   6891.04
 7.3531   6906.46
 7.36246   6922.25
 7.37182   6933.71
 7.38118   6930.98
 7.39054   6956.73
 7.3999   6979.34
 7.40926   6983.45
 7.41862   7012.32
 7.42798   7070.85
 7.43734   7116.22
 7.4467   7165.61
 7.45606   7210.61
 7.46542   7263.12
 7.47478   7296.16
 7.48414   7285.47
 7.4935   7303.73
 7.50286   7315.17
 7.51222   7324.14
 7.52158   7316.37
 7.53094   7326.47
 7.5403   7340.5
 7.54966   7336.55
 7.55902   7333.15
 7.56838   7316.91
 7.57774   7312.15
 7.5871   7257.75
 7.59646   7216.53
 7.60582   7129
 7.61518   7040.44
 7.62454   6889.32
 7.6339   6751.7
 7.64326   6646.02
 7.65262   6576.27
 7.66198   6495.21
 7.67134   6463.39
 7.6807   6433.33
 7.69006   6408.61
 7.69942   6377.86
 7.70878   6364.05
 7.71814   6329.07
 7.7275   6337.76
 7.73686   6328.22
 7.74622   6334.79
 7.75558   6317.37
 7.76494   6311.81
 7.7743   6349.28
 7.78366   6379.24
 7.79302   6390.84
 7.80238   6412.4
 7.81174   6410.65
 7.8211   6456.41
 7.83046   6464.61
 7.83982   6503.46
 7.84918   6499.11
 7.85854   6609.3
 7.8679   6560.3
 7.87726   6597.02
 7.88662   6702.1
 7.89598   6692.39
 7.90534   6893.62
 7.9147   7795.5
 7.92406   8652.14
 7.93342   12367.5
 7.94278   19120.9
 7.95214   18209.6
 7.9615   18866.7
 7.97086   13975.8
 7.98022   8764.41
 7.98958   7218.9
 7.99894   6725.27
 8.0083   6532.32
 8.01766   6494.34
 8.02702   6372.39
 8.03638   6327.67
 8.04574   6267.75
 8.0551   6188.23
 8.06446   6167.64
 8.07382   6185.55
 8.08318   6180.39
 8.09254   6220.27
 8.1019   6276.24
 8.11126   6294.31
 8.12062   6325.44
 8.12998   6346.56
 8.13934   6313.51
 8.1487   6353.9
 8.15806   6349.42
 8.16742   6383.95
 8.17678   6429.47
 8.18614   6501.86
 8.1955   6602.44
 8.20486   6737.56
 8.21422   6876.92
 8.22358   7052.8
 8.23294   7215.39
 8.2423   7354.22
 8.25166   7435.84
 8.26102   7481.63
 8.27038   7501.74
 8.27974   7489.55
 8.2891   7424.39
 8.29846   7302.83
 8.30782   7094.29
 8.31718   6825.71
 8.32654   6560.87
 8.3359   6304.13
 8.34526   6100.62
 8.35462   5990.6
 8.36398   5938.41
 8.37334   6136.55
 8.3827   6830.27
 8.39206   8377.1
 8.40142   10175.4
 8.41078   10728.9
 8.42014   9367.43
 8.4295   7477.36
 8.43886   6440.22
 8.44822   6067.65
 8.45758   6002.03
 8.46694   5997.71
 8.4763   6045.83
 8.48566   6120.44
 8.49502   6205.19
 8.50438   6284.7
 8.51374   6375.41
 8.5231   6468.09
 8.53246   6567.06
 8.54182   6644.26
 8.55118   6722.21
 8.56054   6746.75
 8.5699   6768.69
 8.57926   6759.31
 8.58862   6708.68
 8.59798   6620.15
 8.60734   6515.66
 8.6167   6390.76
 8.62606   6266
 8.63542   6139.84
 8.64478   6037.39
 8.65414   5922.4
 8.6635   5836.92
 8.67286   5767.48
 8.68222   5709.24
 8.69158   5669.29
 8.70094   5613.86
 8.7103   5598.53
 8.71966   5565.55
 8.72902   5532.48
 8.73838   5518.46
 8.74774   5498.35
 8.7571   5490.2
 8.76646   5467.41
 8.77582   5429.05
 8.78518   5422.71
 8.79454   5414.31
 8.8039   5375.19
 8.81326   5371.09
 8.82262   5362.55
 8.83198   5419.31
 8.84134   5544.9
 8.8507   6045.06
 8.86006   6784.26
 8.86942   7384.55
 8.87878   6049.34
 8.88814   5813.38
 8.8975   5430.41
 8.90686   5153.95
 8.91622   5102.5
 8.92558   5080.62
 8.93494   5059.54
 8.9443   5052.44
 8.95366   5044.06
 8.96302   5030.84
 8.97238   5031.83
 8.98174   5037.77
 8.9911   5033.24
 9.00046   5020.44
 9.00982   5005.72
 9.01918   5001.62
 9.02854   4988.79
 9.0379   4977.7
 9.04726   4963.29
 9.05662   4948.28
 9.06598   4953.77
 9.07534   4947.94
 9.0847   4938.68
 9.09406   4952.57
 9.10342   4958.93
 9.11278   4961.92
 9.12214   4970.71
 9.1315   4996.01
 9.14086   5003.75
 9.15022   5009.52
 9.15958   5023.39
 9.16894   5044.78
 9.1783   5067.54
 9.18766   5086.48
 9.19702   5110.61
 9.20638   5148.2
 9.21574   5194.52
 9.2251   5235.01
 9.23446   5276.16
 9.24382   5328.24
 9.25318   5378.57
 9.26254   5435.48
 9.2719   5496.52
 9.28126   5561
 9.29062   5604.38
 9.29998   5643.54
 9.30934   5664.56
 9.3187   5692.19
 9.32806   5711.15
 9.33742   5720.69
 9.34678   5703.25
 9.35614   5665.22
 9.3655   5628.89
 9.37486   5566.42
 9.38422   5516.1
 9.39358   5447
 9.40294   5384
 9.4123   5328.33
 9.42166   5289.89
 9.43102   5253.06
 9.44038   5221.4
 9.44974   5197.29
 9.4591   5181.04
 9.46846   5186.7
 9.47782   5193.3
 9.48718   5202.25
 9.49654   5200.4
 9.5059   5222.33
 9.51526   5216.76
 9.52462   5219.93
 9.53398   5219.09
 9.54334   5232.5
 9.5527   5250.72
 9.56206   5271.84
 9.57142   5280.69
 9.58078   5305.78
 9.59014   5333.78
 9.5995   5345.33
 9.60886   5363.41
 9.61822   5369.77
 9.62758   5368.45
 9.63694   5374.98
 9.6463   5367.07
 9.65566   5369.31
 9.66502   5389.68
 9.67438   5411.82
 9.68374   5461.71
 9.6931   5557.84
 9.70246   6031.13
 9.71182   6027.22
 9.72118   6086.52
 9.73054   5766.54
 9.7399   5556.85
 9.74926   5294.93
 9.75862   5211.99
 9.76798   5178.2
 9.77734   5176.86
 9.7867   5179.48
 9.79606   5214.84
 9.80542   5302.96
 9.81478   5443.02
 9.82414   5781.08
 9.8335   6599.87
 9.84286   8377.81
 9.85222   11114.9
 9.86158   13043.3
 9.87094   12210.2
 9.8803   9595.33
 9.88966   7358.42
 9.89902   6211.95
 9.90838   5734.03
 9.91774   5537.15
 9.9271   5466.83
 9.93646   5436.33
 9.94582   5409.62
 9.95518   5407.17
 9.96454   5398.43
 9.9739   5400.48
 9.98326   5390.72
 9.99262   5387.62
 10.002   5387.51
 10.0113   5357.38
 10.0207   5341.24
 10.0301   5302.22
 10.0394   5270.5
 10.0488   5261.12
 10.0581   5240.07
 10.0675   5216.66
 10.0769   5197.4
 10.0862   5207.89
 10.0956   5189.99
 10.1049   5189.68
 10.1143   5180.92
 10.1237   5195.75
 10.133   5193.04
 10.1424   5214.5
 10.1517   5231.36
 10.1611   5251.29
 10.1705   5289.31
 10.1798   5307.86
 10.1892   5334.81
 10.1985   5381.48
 10.2079   5421
 10.2173   5456.05
 10.2266   5476.62
 10.236   5503.99
 10.2453   5514.24
 10.2547   5549.78
 10.2641   5638.18
 10.2734   5939.54
 10.2828   6661.56
 10.2921   7854.69
 10.3015   8595.99
 10.3109   8217.1
 10.3202   6927.45
 10.3296   6023.92
 10.3389   5503.98
 10.3483   5318.81
 10.3577   5257.07
 10.367   5238.39
 10.3764   5206.51
 10.3857   5216.35
 10.3951   5211.81
 10.4045   5256.72
 10.4138   5246.94
 10.4232   5247.26
 10.4325   5289.41
 10.4419   5358.98
 10.4513   5344.23
 10.4606   5381.33
 10.47   6681.55
 10.4793   8106
 10.4887   5777.35
 10.4981   6098.61
 10.5074   6182.66
 10.5168   5907.2
 10.5261   5690.31
 10.5355   5463.1
 10.5449   5357.25
 10.5542   5339.2
 10.5636   5282.14
 10.5729   5229.27
 10.5823   5197.42
 10.5917   5184.38
 10.601   5161.4
 10.6104   5127.62
 10.6197   5111.91
 10.6291   5121.86
 10.6385   5098.01
 10.6478   5067.14
 10.6572   5067.68
 10.6665   5070.4
 10.6759   5055.12
 10.6853   5054.63
 10.6946   5057.1
 10.704   5060.23
 10.7133   5072.82
 10.7227   5084.36
 10.7321   5087.75
 10.7414   5097.67
 10.7508   5128.63
 10.7601   5125.46
 10.7695   5132.97
 10.7789   5135.57
 10.7882   5123.09
 10.7976   5116.53
 10.8069   5101.32
 10.8163   5095.5
 10.8257   5087.55
 10.835   5081.32
 10.8444   5064.68
 10.8537   5052.71
 10.8631   5035.78
 10.8725   5020.1
 10.8818   4983.27
 10.8912   4972.43
 10.9005   4944.71
 10.9099   4928.44
 10.9193   4899.85
 10.9286   4888.64
 10.938   4876.14
 10.9473   4858.51
 10.9567   4826.75
 10.9661   4825.59
 10.9754   4818.93
 10.9848   4811.61
 10.9941   4793.87
 11.0035   4799.49
 11.0129   4795.9
 11.0222   4781.68
 11.0316   4790.73
 11.0409   4800.19
 11.0503   4805.57
 11.0597   4817.88
 11.069   4821.04
 11.0784   4827.96
 11.0877   4861.92
 11.0971   4881.52
 11.1065   4904.88
 11.1158   4941.21
 11.1252   4956.57
 11.1345   4988.85
 11.1439   4995.94
 11.1533   4986.79
 11.1626   4972.5
 11.172   4970.87
 11.1813   4953.93
 11.1907   4919.88
 11.2001   4885.63
 11.2094   5049.84
 11.2188   5055.23
 11.2281   4885.27
 11.2375   4846.14
 11.2469   4824.06
 11.2562   4794.62
 11.2656   4754.03
 11.2749   4715.64
 11.2843   4703.73
 11.2937   4698.91
 11.303   4672.54
 11.3124   4647.71
 11.3217   4632.21
 11.3311   4628.74
 11.3405   4610.42
 11.3498   4593.82
 11.3592   4571.58
 11.3685   4561.66
 11.3779   4562.96
 11.3873   4542.68
 11.3966   4528.3
 11.406   4530.21
 11.4153   4524.76
 11.4247   4512.7
 11.4341   4509.88
 11.4434   4506.81
 11.4528   4501.35
 11.4621   4493.52
 11.4715   4480.26
 11.4809   4476.96
 11.4902   4476.97
 11.4996   4472.83
 11.5089   4458.25
 11.5183   4460.36
 11.5277   4452.73
 11.537   4447.77
 11.5464   4427.94
 11.5557   4417.97
 11.5651   4427.11
 11.5745   4418.35
 11.5838   4401.21
 11.5932   4402.67
 11.6025   4402.6
 11.6119   4398.74
 11.6213   4397.58
 11.6306   4391.21
 11.64   4389.7
 11.6493   4383.67
 11.6587   4374.72
 11.6681   4362.59
 11.6774   4342.77
 11.6868   4349.2
 11.6961   4356.6
 11.7055   4344.12
 11.7149   4334.1
 11.7242   4350.71
 11.7336   4347.11
 11.7429   4342.29
 11.7523   4331.38
 11.7617   4342.4
 11.771   4339.05
 11.7804   4342.19
 11.7897   4340.75
 11.7991   4345.05
 11.8085   4347.65
 11.8178   4368.28
 11.8272   4372.74
 11.8365   4377.36
 11.8459   4388.06
 11.8553   4409.94
 11.8646   4450.05
 11.874   4522.9
 11.8833   4668.01
 11.8927   4906.2
 11.9021   5106.78
 11.9114   5041.63
 11.9208   4868.98
 11.9301   4691.03
 11.9395   4589.82
 11.9489   4553.67
 11.9582   4549.07
 11.9676   4561.17
 11.9769   4565.69
 11.9863   4553.15
 11.9957   4557.79
 12.005   4557.75
 12.0144   4543.02
 12.0237   4517.58
 12.0331   4518.34
 12.0425   4499.25
 12.0518   4481.09
 12.0612   4472.94
 12.0705   4448.24
 12.0799   4437.78
 12.0893   4428.26
 12.0986   4421.33
 12.108   4392.29
 12.1173   4364.87
 12.1267   4354.08
 12.1361   4324.45
 12.1454   4298.39
 12.1548   4263.56
 12.1641   4240.82
 12.1735   4220.96
 12.1829   4188.29
 12.1922   4173.78
 12.2016   4153.49
 12.2109   4153.07
 12.2203   4129.17
 12.2297   4117.98
 12.239   4104.67
 12.2484   4103.92
 12.2577   4103.43
 12.2671   4099.02
 12.2765   4094.63
 12.2858   4089.78
 12.2952   4087.02
 12.3045   4088.64
 12.3139   4096.14
 12.3233   4092.2
 12.3326   4095.78
 12.342   4099.29
 12.3513   4089.8
 12.3607   4101.16
 12.3701   4110.15
 12.3794   4116.91
 12.3888   4119.55
 12.3981   4129.91
 12.4075   4139.64
 12.4169   4137.27
 12.4262   4143.19
 12.4356   4140.74
 12.4449   4140.44
 12.4543   4143.96
 12.4637   4134.98
 12.473   4155.6
 12.4824   4151.38
 12.4917   4148.76
 12.5011   4138.97
 12.5105   4137.17
 12.5198   4129.38
 12.5292   4129.24
 12.5385   4122.83
 12.5479   4141.98
 12.5573   4158.84
 12.5666   4149.94
 12.576   4164.1
 12.5853   4157.93
 12.5947   4149.89
 12.6041   4157.39
 12.6134   4170.07
 12.6228   4180.24
 12.6321   4192.28
 12.6415   4195.61
 12.6509   4210.15
 12.6602   4217.5
 12.6696   4223.85
 12.6789   4229.65
 12.6883   4230.58
 12.6977   4232.12