File: docs/GuiliangJun25_tutorial_output/integrals/MA2b-00007_arcsmasked.chi
MA2b-00007.tif Azm= 0.00
2-Theta Angle (Degrees)
Intensity
       2500
 1.00702   8017.9
 1.01638   7944.55
 1.02574   7882.59
 1.0351   7806.3
 1.04446   7746.84
 1.05382   7720.26
 1.06318   7682.37
 1.07254   7622.26
 1.0819   7596.63
 1.09126   7554.32
 1.10062   7495.68
 1.10998   7465.17
 1.11934   7434.83
 1.1287   7402.81
 1.13806   7362.74
 1.14742   7309.98
 1.15678   7329.61
 1.16614   7306.25
 1.1755   7316.95
 1.18486   7295.59
 1.19422   7310.27
 1.20358   7242.51
 1.21294   7212.68
 1.2223   7221.3
 1.23166   7189.01
 1.24102   7196.75
 1.25038   7167.88
 1.25974   7181.34
 1.2691   7177.69
 1.27846   7190.48
 1.28782   7187.2
 1.29718   7168.53
 1.30654   7170.23
 1.3159   7197.69
 1.32526   7204.46
 1.33462   7226.01
 1.34398   7234.24
 1.35334   7187.07
 1.3627   7243.32
 1.37206   7277.24
 1.38142   7286.35
 1.39078   7314.72
 1.40014   7323.49
 1.4095   7359.66
 1.41886   7400.86
 1.42822   7420.08
 1.43758   7463.85
 1.44694   7518.99
 1.4563   7536.1
 1.46566   7645.84
 1.47502   7695.07
 1.48438   7705.92
 1.49374   7742.85
 1.5031   7796.65
 1.51246   7831.03
 1.52182   7854.73
 1.53118   7814.16
 1.54054   7821.42
 1.5499   7834.68
 1.55926   7799.51
 1.56862   7764.93
 1.57798   7768.45
 1.58734   7762.16
 1.5967   7749.17
 1.60606   7735.37
 1.61542   7744.06
 1.62478   7765.47
 1.63414   7745.45
 1.6435   7748.89
 1.65286   7760.7
 1.66222   7763.59
 1.67158   7775.59
 1.68094   7779.96
 1.6903   7755.48
 1.69966   7792.81
 1.70902   7783.93
 1.71838   7802.14
 1.72774   7783.65
 1.7371   7789.18
 1.74646   7791.04
 1.75582   7836.84
 1.76518   7835.42
 1.77454   7849.09
 1.7839   7875.05
 1.79326   7891.49
 1.80262   7958.84
 1.81198   7968.7
 1.82134   8004.8
 1.8307   8044.23
 1.84006   8073.09
 1.84942   8090.48
 1.85878   8123.87
 1.86814   8182.78
 1.8775   8237.78
 1.88686   8290.39
 1.89622   8324.81
 1.90558   8362.95
 1.91494   8408.12
 1.9243   8486.22
 1.93366   8509.72
 1.94302   8557.09
 1.95238   8622.27
 1.96174   8721.64
 1.9711   8929.14
 1.98046   8846.02
 1.98982   8831.37
 1.99918   8863.76
 2.00854   8932.95
 2.0179   8976.42
 2.02726   9039.86
 2.03662   9124.4
 2.04598   9200.23
 2.05534   9287.66
 2.0647   9378.74
 2.07406   9537.47
 2.08342   9798.57
 2.09278   10248.3
 2.10214   11120.1
 2.1115   12919.6
 2.12086   16615.3
 2.13022   22826.8
 2.13958   29551.5
 2.14894   32992.9
 2.1583   31041
 2.16766   25894.2
 2.17702   20841.8
 2.18638   17213.5
 2.19574   14831.6
 2.2051   13267.5
 2.21446   12344.3
 2.22382   11824.5
 2.23318   11539.1
 2.24254   11289.2
 2.2519   11058.4
 2.26126   10820.2
 2.27062   10629.4
 2.27998   10532
 2.28934   10526.9
 2.2987   10501.7
 2.30806   10526.1
 2.31742   10580.6
 2.32678   10617.4
 2.33614   10674.1
 2.3455   10725.3
 2.35486   10784.1
 2.36422   10830.8
 2.37358   10891.7
 2.38294   10960.5
 2.3923   11010.8
 2.40166   11092.2
 2.41102   11168.2
 2.42038   11233.5
 2.42974   11320.5
 2.4391   11385.5
 2.44846   11447.1
 2.45782   11524.8
 2.46718   11593.9
 2.47654   11681
 2.4859   11736.8
 2.49526   11807.7
 2.50462   11886.1
 2.51398   11959.4
 2.52334   12047.2
 2.5327   12094
 2.54206   12178.4
 2.55142   12250.7
 2.56078   12313.5
 2.57014   12352.9
 2.5795   12452.3
 2.58886   12503.3
 2.59822   12566.4
 2.60758   12587.1
 2.61694   12629.1
 2.6263   12687.3
 2.63566   12710.7
 2.64502   12764.2
 2.65438   12800.6
 2.66374   12838.8
 2.6731   12908.6
 2.68246   12903.9
 2.69182   12935.1
 2.70118   12976.7
 2.71054   12972.9
 2.7199   12970.6
 2.72926   12990.6
 2.73862   12967.8
 2.74798   12933.5
 2.75734   12945.6
 2.7667   12933.9
 2.77606   12938.5
 2.78542   12912
 2.79478   12879.7
 2.80414   12872.8
 2.8135   12830.4
 2.82286   12812.8
 2.83222   12777.4
 2.84158   12756.4
 2.85094   12706.4
 2.8603   12676.8
 2.86966   12639.5
 2.87902   12620.1
 2.88838   12562.1
 2.89774   12531
 2.9071   12505.3
 2.91646   12444.4
 2.92582   12418.6
 2.93518   12399.1
 2.94454   12377.9
 2.9539   12328.3
 2.96326   12260.5
 2.97262   12225
 2.98198   12199.9
 2.99134   12109.9
 3.0007   12060.6
 3.01006   12012.7
 3.01942   11978.6
 3.02878   11939.6
 3.03814   11862.7
 3.0475   11817.4
 3.05686   11745.1
 3.06622   11687.3
 3.07558   11647.8
 3.08494   11605.4
 3.0943   11548.1
 3.10366   11484.6
 3.11302   11455.4
 3.12238   11431.9
 3.13174   11377.4
 3.1411   11330.8
 3.15046   11298
 3.15982   11260.3
 3.16918   11245
 3.17854   11196
 3.1879   11187
 3.19726   11155.8
 3.20662   11116.2
 3.21598   11087.4
 3.22534   11057.8
 3.2347   11011.6
 3.24406   10989.3
 3.25342   10977.9
 3.26278   10968.2
 3.27214   10942.3
 3.2815   10899.9
 3.29086   10880.1
 3.30022   10878.7
 3.30958   10876.3
 3.31894   10846.7
 3.3283   10868.8
 3.33766   10867.4
 3.34702   10852.7
 3.35638   10871
 3.36574   10880.5
 3.3751   10860.1
 3.38446   10840.1
 3.39382   10844.2
 3.40318   10865.4
 3.41254   10903.5
 3.4219   10885.6
 3.43126   10912.7
 3.44062   10925.4
 3.44998   10943.1
 3.45934   10939.6
 3.4687   10935.7
 3.47806   10976.7
 3.48742   10951.2
 3.49678   10927.3
 3.50614   10964
 3.5155   10980
 3.52486   10940.9
 3.53422   10944.7
 3.54358   10985.7
 3.55294   10976.2
 3.5623   10965.5
 3.57166   10967.9
 3.58102   11015.3
 3.59038   11030.5
 3.59974   11007.8
 3.6091   11064.1
 3.61846   11122.4
 3.62782   11084.7
 3.63718   11083.7
 3.64654   11172.6
 3.6559   11255.2
 3.66526   11220.7
 3.67462   11246.3
 3.68398   11464.5
 3.69334   11471.2
 3.7027   11484.2
 3.71206   11546
 3.72142   11735.2
 3.73078   11606.4
 3.74014   11652.9
 3.7495   11749.3
 3.75886   11772.5
 3.76822   11928.8
 3.77758   11908.5
 3.78694   12016
 3.7963   12318
 3.80566   12221.3
 3.81502   12261.3
 3.82438   12778.7
 3.83374   12852.5
 3.8431   13111.3
 3.85246   13741.8
 3.86182   14232.5
 3.87118   14591.2
 3.88054   15387.6
 3.8899   16136.7
 3.89926   17467.3
 3.90862   19268.3
 3.91798   24108.2
 3.92734   35882.5
 3.9367   56152.6
 3.94606   77214.5
 3.95542   83380.3
 3.96478   97620.2
 3.97414   121971
 3.9835   104173
 3.99286   88815.3
 4.00222   58324.8
 4.01158   38051.8
 4.02094   24224.6
 4.0303   19359.4
 4.03966   16689
 4.04902   14541.3
 4.05838   13602.5
 4.06774   13144.1
 4.0771   12658.8
 4.08646   12609.3
 4.09582   12117.8
 4.10518   11865.3
 4.11454   11782.3
 4.1239   11337.2
 4.13326   10997.2
 4.14262   11052
 4.15198   10731.3
 4.16134   10471.9
 4.1707   10331
 4.18006   10263.8
 4.18942   10058.5
 4.19878   9855.69
 4.20814   9693.03
 4.2175   9689.03
 4.22686   9456.57
 4.23622   9288.44
 4.24558   9391.99
 4.25494   9417.6
 4.2643   9698.16
 4.27366   10148.1
 4.28302   10511
 4.29238   10796
 4.30174   10684
 4.3111   10261.2
 4.32046   9899.9
 4.32982   9426.53
 4.33918   9014.97
 4.34854   8843.36
 4.3579   8664.47
 4.36726   8445.23
 4.37662   8304.83
 4.38598   8160.3
 4.39534   8080.82
 4.4047   7999.26
 4.41406   7845.58
 4.42342   7785.06
 4.43278   7776.73
 4.44214   7660.72
 4.4515   7583.9
 4.46086   7552.21
 4.47022   7519.46
 4.47958   7441.88
 4.48894   7392.56
 4.4983   7371.71
 4.50766   7304.3
 4.51702   7199.74
 4.52638   7175.61
 4.53574   7132.29
 4.5451   7082.05
 4.55446   7042.7
 4.56382   7019.03
 4.57318   6994.6
 4.58254   6952.22
 4.5919   6917.29
 4.60126   6893.84
 4.61062   6860.29
 4.61998   6805.6
 4.62934   6784.42
 4.6387   6785.04
 4.64806   6742.78
 4.65742   6691.02
 4.66678   6697.5
 4.67614   6667.44
 4.6855   6656.47
 4.69486   6643.56
 4.70422   6639
 4.71358   6662.71
 4.72294   6689.55
 4.7323   6731.81
 4.74166   6758
 4.75102   6806.68
 4.76038   6856.34
 4.76974   6951.29
 4.7791   7099.69
 4.78846   7310.56
 4.79782   7612.48
 4.80718   8015.58
 4.81654   8529.39
 4.8259   9096.4
 4.83526   9604.98
 4.84462   9795
 4.85398   9525.15
 4.86334   8921.7
 4.8727   8226.47
 4.88206   7738.02
 4.89142   7438.42
 4.90078   7306.8
 4.91014   7337.59
 4.9195   7411.32
 4.92886   7563.1
 4.93822   7785.08
 4.94758   8120
 4.95694   8559.9
 4.9663   9182.7
 4.97566   9869.96
 4.98502   10519.2
 4.99438   10896.6
 5.00374   10885.8
 5.0131   10427.2
 5.02246   9692.2
 5.03182   8840.53
 5.04118   8116.42
 5.05054   7560.31
 5.0599   7208.56
 5.06926   7030.71
 5.07862   7054.34
 5.08798   7180.83
 5.09734   7429.68
 5.1067   8126.33
 5.11606   7953.98
 5.12542   8952.59
 5.13478   11416.2
 5.14414   13184.6
 5.1535   12333.3
 5.16286   9799.3
 5.17222   7787.35
 5.18158   6767.34
 5.19094   6786.39
 5.2003   6623.15
 5.20966   6384.94
 5.21902   6312.77
 5.22838   6194.5
 5.23774   6135.74
 5.2471   6085.64
 5.25646   6034.61
 5.26582   6007.06
 5.27518   5968.66
 5.28454   5953.63
 5.2939   5938.73
 5.30326   5945.79
 5.31262   5916.27
 5.32198   5903.24
 5.33134   5895.75
 5.3407   5896.65
 5.35006   5859.59
 5.35942   5846.07
 5.36878   5854.41
 5.37814   5884.63
 5.3875   5856.61
 5.39686   5862.23
 5.40622   5871.84
 5.41558   5884.83
 5.42494   5859.42
 5.4343   5876.55
 5.44366   5908.57
 5.45302   5941.17
 5.46238   5928.04
 5.47174   5990.84
 5.4811   6061.62
 5.49046   6118.86
 5.49982   6210.64
 5.50918   6348.72
 5.51854   6609.03
 5.5279   6906.62
 5.53726   7329
 5.54662   7863.8
 5.55598   8361.98
 5.56534   8653.77
 5.5747   8752.47
 5.58406   8691.03
 5.59342   8542.74
 5.60278   8743.92
 5.61214   7854.99
 5.6215   7348.92
 5.63086   7060.05
 5.64022   6787.83
 5.64958   6624.64
 5.65894   6491.5
 5.6683   6381.49
 5.67766   6253.4
 5.68702   6208.69
 5.69638   6175.57
 5.70574   6128.11
 5.7151   6070.16
 5.72446   6073.13
 5.73382   6095.54
 5.74318   6110.59
 5.75254   6121.02
 5.7619   6157.44
 5.77126   6195.38
 5.78062   6147.26
 5.78998   6130.87
 5.79934   6161.56
 5.8087   6175.36
 5.81806   6141.56
 5.82742   6179.36
 5.83678   6251.45
 5.84614   6316.88
 5.8555   6365.98
 5.86486   6495.8
 5.87422   6655.31
 5.88358   6837.55
 5.89294   7066.27
 5.9023   7432.42
 5.91166   8056
 5.92102   8861.61
 5.93038   9911.56
 5.93974   11035
 5.9491   11426.1
 5.95846   11244
 5.96782   11098.8
 5.97718   10945.8
 5.98654   10650.8
 5.9959   10200.3
 6.00526   9602.95
 6.01462   8984.45
 6.02398   8386.25
 6.03334   7805.27
 6.0427   7378.72
 6.05206   7026.2
 6.06142   6752.93
 6.07078   6522.38
 6.08014   6376.63
 6.0895   6285.27
 6.09886   6195.22
 6.10822   6116.2
 6.11758   6071.24
 6.12694   6050.36
 6.1363   6006.64
 6.14566   5973.44
 6.15502   5971.37
 6.16438   5971.73
 6.17374   5944.65
 6.1831   5940.57
 6.19246   5942.87
 6.20182   5958.68
 6.21118   5944.04
 6.22054   5914.81
 6.2299   5952.5
 6.23926   5945.49
 6.24862   5929.53
 6.25798   5953.76
 6.26734   5961.56
 6.2767   5953.06
 6.28606   5954.99
 6.29542   5970.37
 6.30478   5987.6
 6.31414   5994.75
 6.3235   5981.83
 6.33286   6009.39
 6.34222   6021.98
 6.35158   6025.16
 6.36094   6004.79
 6.3703   6021.36
 6.37966   6032.59
 6.38902   6050.58
 6.39838   6057.4
 6.40774   6101.08
 6.4171   6153.51
 6.42646   6150.49
 6.43582   6181.16
 6.44518   6213.63
 6.45454   6225.27
 6.4639   6249.84
 6.47326   6268.97
 6.48262   6281.81
 6.49198   6311.64
 6.50134   6289.68
 6.5107   6318.6
 6.52006   6361.4
 6.52942   6337.61
 6.53878   6375.29
 6.54814   6421.52
 6.5575   6454.57
 6.56686   6481.6
 6.57622   6494.1
 6.58558   6551.66
 6.59494   6610.55
 6.6043   6706.16
 6.61366   6713.9
 6.62302   6774.74
 6.63238   6860.55
 6.64174   6893.4
 6.6511   6958.7
 6.66046   7064.09
 6.66982   7071.65
 6.67918   7106.96
 6.68854   7116.05
 6.6979   7152.34
 6.70726   7213.22
 6.71662   7250.2
 6.72598   7277.08
 6.73534   7410.45
 6.7447   7455.2
 6.75406   7492.73
 6.76342   7626.01
 6.77278   7797.47
 6.78214   7883.26
 6.7915   8032.5
 6.80086   8143.76
 6.81022   8318.97
 6.81958   8597.28
 6.82894   8957.05
 6.8383   9540.11
 6.84766   11666.7
 6.85702   14944.1
 6.86638   29729.7
 6.87574   41395.8
 6.8851   32052.8
 6.89446   23562.6
 6.90382   14250.2
 6.91318   11168.8
 6.92254   10623.9
 6.9319   10403.1
 6.94126   10126.8
 6.95062   10118.7
 6.95998   9902.62
 6.96934   9487.79
 6.9787   9400.3
 6.98806   9180.2
 6.99742   8896.18
 7.00678   8750.57
 7.01614   8511.56
 7.0255   8318.31
 7.03486   8235.44
 7.04422   8058.34
 7.05358   7969.7
 7.06294   7996.32
 7.0723   7846.62
 7.08166   7656.98
 7.09102   7514.15
 7.10038   7458.01
 7.10974   7348.05
 7.1191   7301
 7.12846   7241.87
 7.13782   7216.5
 7.14718   7169.17
 7.15654   7137.8
 7.1659   7102.36
 7.17526   7108.12
 7.18462   7048.98
 7.19398   7018.63
 7.20334   6978.32
 7.2127   6964.7
 7.22206   6928.22
 7.23142   6904.79
 7.24078   6898.53
 7.25014   6916.12
 7.2595   6894.62
 7.26886   6890.76
 7.27822   6889.25
 7.28758   6889.98
 7.29694   6853.44
 7.3063   6859.79
 7.31566   6881.13
 7.32502   6907.69
 7.33438   6899.35
 7.34374   6921.66
 7.3531   6949.4
 7.36246   6962.33
 7.37182   6990.65
 7.38118   6994.17
 7.39054   7036.98
 7.3999   7077.12
 7.40926   7127.42
 7.41862   7198.88
 7.42798   7298.2
 7.43734   7389.36
 7.4467   7479.15
 7.45606   7541.69
 7.46542   7570.62
 7.47478   7554.72
 7.48414   7513.29
 7.4935   7428.71
 7.50286   7369.4
 7.51222   7269.58
 7.52158   7169.42
 7.53094   7078.14
 7.5403   7016
 7.54966   6966.31
 7.55902   6910.46
 7.56838   6874.92
 7.57774   6847.73
 7.5871   6809.96
 7.59646   6785.86
 7.60582   6734.73
 7.61518   6711.22
 7.62454   6640.21
 7.6339   6567.37
 7.64326   6528
 7.65262   6487.75
 7.66198   6450.94
 7.67134   6435.11
 7.6807   6407.48
 7.69006   6407
 7.69942   6373.87
 7.70878   6375.51
 7.71814   6350.09
 7.7275   6359.03
 7.73686   6345.2
 7.74622   6345.6
 7.75558   6338.72
 7.76494   6350.66
 7.7743   6372.96
 7.78366   6403.78
 7.79302   6431.63
 7.80238   6435.93
 7.81174   6434.68
 7.8211   6480.75
 7.83046   6506.11
 7.83982   6526.26
 7.84918   6536.02
 7.85854   6627.39
 7.8679   6584.2
 7.87726   6636.64
 7.88662   6731.75
 7.89598   6737.5
 7.90534   6928.02
 7.9147   7832.11
 7.92406   8405.36
 7.93342   11404.7
 7.94278   19769.7
 7.95214   16191.4
 7.9615   12675.8
 7.97086   10091.6
 7.98022   7547.83
 7.98958   6987.56
 7.99894   6685.85
 8.0083   6527.85
 8.01766   6515.21
 8.02702   6383.12
 8.03638   6351.52
 8.04574   6285.27
 8.0551   6193.83
 8.06446   6162.52
 8.07382   6144.33
 8.08318   6111.72
 8.09254   6109.36
 8.1019   6125.87
 8.11126   6120.55
 8.12062   6144.03
 8.12998   6149.78
 8.13934   6122.04
 8.1487   6150.66
 8.15806   6140.01
 8.16742   6135.98
 8.17678   6144.08
 8.18614   6162.04
 8.1955   6185.94
 8.20486   6254.03
 8.21422   6347.98
 8.22358   6459.67
 8.23294   6595.64
 8.2423   6787.52
 8.25166   6990.92
 8.26102   7244.1
 8.27038   7490.36
 8.27974   7749.62
 8.2891   7953.4
 8.29846   8080.2
 8.30782   8035.06
 8.31718   7837.22
 8.32654   7484.88
 8.3359   7105.86
 8.34526   6734.73
 8.35462   6486.68
 8.36398   6298.62
 8.37334   6399.63
 8.3827   6940.78
 8.39206   7992.97
 8.40142   9361.38
 8.41078   9755.88
 8.42014   8608.2
 8.4295   7085.55
 8.43886   6326.76
 8.44822   5941.51
 8.45758   5840.43
 8.46694   5805.16
 8.4763   5836.83
 8.48566   5885.26
 8.49502   5971.14
 8.50438   6064.41
 8.51374   6219.32
 8.5231   6386.82
 8.53246   6584.42
 8.54182   6812.5
 8.55118   7055.68
 8.56054   7280.16
 8.5699   7472.96
 8.57926   7601.69
 8.58862   7625.11
 8.59798   7550.99
 8.60734   7386.49
 8.6167   7182.44
 8.62606   6946.58
 8.63542   6715.36
 8.64478   6487.57
 8.65414   6284.77
 8.6635   6109.48
 8.67286   5947.43
 8.68222   5817.77
 8.69158   5727.51
 8.70094   5634.38
 8.7103   5570.84
 8.71966   5521.98
 8.72902   5482.73
 8.73838   5421.6
 8.74774   5391.2
 8.7571   5370.51
 8.76646   5342.73
 8.77582   5318.51
 8.78518   5298.8
 8.79454   5300.65
 8.8039   5283.97
 8.81326   5259.8
 8.82262   5275.91
 8.83198   5331.56
 8.84134   5452.08
 8.8507   5902.41
 8.86006   6608.83
 8.86942   7032.17
 8.87878   6082.09
 8.88814   5844.13
 8.8975   5501.61
 8.90686   5197.55
 8.91622   5122.81
 8.92558   5108.85
 8.93494   5076.01
 8.9443   5072.52
 8.95366   5081.49
 8.96302   5062.18
 8.97238   5055.2
 8.98174   5072.46
 8.9911   5050.08
 9.00046   5046.29
 9.00982   5028.25
 9.01918   5028.8
 9.02854   5027.14
 9.0379   5013.44
 9.04726   5007.28
 9.05662   4999.14
 9.06598   5006.06
 9.07534   4992.5
 9.0847   4987.09
 9.09406   5003.78
 9.10342   5002.5
 9.11278   5014.55
 9.12214   5021.62
 9.1315   5045.73
 9.14086   5063.65
 9.15022   5076.41
 9.15958   5098.62
 9.16894   5123.72
 9.1783   5155.27
 9.18766   5181.83
 9.19702   5214.06
 9.20638   5234.38
 9.21574   5266.72
 9.2251   5281.22
 9.23446   5298.46
 9.24382   5325.45
 9.25318   5350.68
 9.26254   5381.74
 9.2719   5410.19
 9.28126   5442.81
 9.29062   5497.66
 9.29998   5545.28
 9.30934   5597.56
 9.3187   5635.39
 9.32806   5687.5
 9.33742   5716.93
 9.34678   5719.36
 9.35614   5709.7
 9.3655   5681.31
 9.37486   5624.36
 9.38422   5544
 9.39358   5477.72
 9.40294   5400.34
 9.4123   5321.2
 9.42166   5265.69
 9.43102   5211.75
 9.44038   5180.37
 9.44974   5151.18
 9.4591   5130.32
 9.46846   5113.75
 9.47782   5113.02
 9.48718   5112.71
 9.49654   5116.14
 9.5059   5128.34
 9.51526   5134.67
 9.52462   5123.08
 9.53398   5139.38
 9.54334   5157.01
 9.5527   5176.23
 9.56206   5213.62
 9.57142   5234.31
 9.58078   5272.81
 9.59014   5309.85
 9.5995   5338.54
 9.60886   5387.31
 9.61822   5416.12
 9.62758   5429.96
 9.63694   5453.35
 9.6463   5464.5
 9.65566   5486.17
 9.66502   5530
 9.67438   5591.93
 9.68374   5681.17
 9.6931   5804.23
 9.70246   6401.8
 9.71182   6470.93
 9.72118   6631.44
 9.73054   5997.1
 9.7399   5784.22
 9.74926   5505.57
 9.75862   5346.84
 9.76798   5268.2
 9.77734   5236.77
 9.7867   5233.87
 9.79606   5239
 9.80542   5310.5
 9.81478   5424.32
 9.82414   5705.71
 9.8335   6434.61
 9.84286   7766.19
 9.85222   9645.73
 9.86158   11394.8
 9.87094   10731.4
 9.8803   8722.25
 9.88966   6878.09
 9.89902   6059.22
 9.90838   5581.52
 9.91774   5410.95
 9.9271   5351.23
 9.93646   5328.37
 9.94582   5313.04
 9.95518   5319.48
 9.96454   5336.23
 9.9739   5338.94
 9.98326   5349.17
 9.99262   5363.33
 10.002   5367.36
 10.0113   5356.44
 10.0207   5345.15
 10.0301   5320.88
 10.0394   5299.82
 10.0488   5283.85
 10.0581   5262.3
 10.0675   5258.07
 10.0769   5246.11
 10.0862   5237.13
 10.0956   5230.55
 10.1049   5218.36
 10.1143   5218.81
 10.1237   5232.32
 10.133   5231.45
 10.1424   5254.42
 10.1517   5270.54
 10.1611   5299.72
 10.1705   5349.51
 10.1798   5398.78
 10.1892   5433.69
 10.1985   5509.2
 10.2079   5598.89
 10.2173   5669.93
 10.2266   5726.54
 10.236   5795.48
 10.2453   5825.29
 10.2547   5860.29
 10.2641   5944.46
 10.2734   6077.45
 10.2828   5890.32
 10.2921   6093.96
 10.3015   6181.72
 10.3109   6049.63
 10.3202   5818.65
 10.3296   5998.17
 10.3389   5586
 10.3483   5418.14
 10.3577   5351.81
 10.367   5346.45
 10.3764   5314.38
 10.3857   5312.54
 10.3951   5326.84
 10.4045   5378.94
 10.4138   5387.24
 10.4232   5391.39
 10.4325   5441.66
 10.4419   5523.26
 10.4513   5543.98
 10.4606   5596.65
 10.47   5732.03
 10.4793   5918.6
 10.4887   6014.25
 10.4981   6332.25
 10.5074   6323.94
 10.5168   6227.17
 10.5261   6055.46
 10.5355   5671.65
 10.5449   5509.35
 10.5542   5445.86
 10.5636   5380.6
 10.5729   5310.89
 10.5823   5264.27
 10.5917   5245.33
 10.601   5215.32
 10.6104   5175.41
 10.6197   5162.38
 10.6291   5162.81
 10.6385   5130.54
 10.6478   5108.4
 10.6572   5106.84
 10.6665   5099.87
 10.6759   5082.85
 10.6853   5077.54
 10.6946   5103.86
 10.704   5105.08
 10.7133   5113.59
 10.7227   5138.72
 10.7321   5159.51
 10.7414   5178.77
 10.7508   5200.8
 10.7601   5186.81
 10.7695   5191.01
 10.7789   5194.25
 10.7882   5189.17
 10.7976   5168.65
 10.8069   5177.35
 10.8163   5159.63
 10.8257   5148.96
 10.835   5140.07
 10.8444   5126.69
 10.8537   5110.27
 10.8631   5091.45
 10.8725   5063.52
 10.8818   5037.78
 10.8912   5006.14
 10.9005   4982.68
 10.9099   4964.29
 10.9193   4933.11
 10.9286   4916.39
 10.938   4899.95
 10.9473   4877.19
 10.9567   4849.31
 10.9661   4844.86
 10.9754   4845.32
 10.9848   4823.27
 10.9941   4810.16
 11.0035   4807.92
 11.0129   4816.77
 11.0222   4813.82
 11.0316   4804.65
 11.0409   4825.31
 11.0503   4820.51
 11.0597   4836.87
 11.069   4817.49
 11.0784   4830.24
 11.0877   4843.87
 11.0971   4863.28
 11.1065   4867.91
 11.1158   4900.31
 11.1252   4924.14
 11.1345   4955.95
 11.1439   4958.47
 11.1533   4978.08
 11.1626   4967.99
 11.172   4989.37
 11.1813   4971.86
 11.1907   4958.52
 11.2001   4919.86
 11.2094   5003.24
 11.2188   5000.73
 11.2281   4882.06
 11.2375   4913.41
 11.2469   4827.56
 11.2562   4782.67
 11.2656   4724.59
 11.2749   4693.62
 11.2843   4681.66
 11.2937   4668.29
 11.303   4644.88
 11.3124   4625.15
 11.3217   4616.49
 11.3311   4616.79
 11.3405   4589.74
 11.3498   4573.74
 11.3592   4569.77
 11.3685   4567.43
 11.3779   4559.38
 11.3873   4553.4
 11.3966   4535.44
 11.406   4535.02
 11.4153   4533.19
 11.4247   4519.23
 11.4341   4508.15
 11.4434   4509.05
 11.4528   4508.23
 11.4621   4497.12
 11.4715   4478.67
 11.4809   4483.36
 11.4902   4486.24
 11.4996   4474.96
 11.5089   4470.11
 11.5183   4471.27
 11.5277   4467.7
 11.537   4472.87
 11.5464   4457.6
 11.5557   4455.59
 11.5651   4446.14
 11.5745   4445
 11.5838   4437.18
 11.5932   4428.7
 11.6025   4428.34
 11.6119   4435.47
 11.6213   4435.08
 11.6306   4428.27
 11.64   4422.92
 11.6493   4415.8
 11.6587   4411
 11.6681   4395.85
 11.6774   4401.7
 11.6868   4390.17
 11.6961   4390.21
 11.7055   4380.82
 11.7149   4379.38
 11.7242   4375.38
 11.7336   4366.2
 11.7429   4374.99
 11.7523   4366.36
 11.7617   4367
 11.771   4371.63
 11.7804   4377.89
 11.7897   4379.29
 11.7991   4376.26
 11.8085   4382.45
 11.8178   4391.52
 11.8272   4395.99
 11.8365   4404.02
 11.8459   4429.18
 11.8553   4458.61
 11.8646   4492.44
 11.874   4554.13
 11.8833   4601.15
 11.8927   4706.87
 11.9021   4807.2
 11.9114   4835.12
 11.9208   4781.72
 11.9301   4746.11
 11.9395   4730.99
 11.9489   4689.55
 11.9582   4691.62
 11.9676   4685.5
 11.9769   4692.77
 11.9863   4671.11
 11.9957   4655.35
 12.005   4636.61
 12.0144   4609.81
 12.0237   4582.91
 12.0331   4548.71
 12.0425   4514.86
 12.0518   4490.03
 12.0612   4456.33
 12.0705   4427.13
 12.0799   4403.17
 12.0893   4382.34
 12.0986   4357.58
 12.108   4341.56
 12.1173   4311.39
 12.1267   4292.54
 12.1361   4266.45
 12.1454   4247.18
 12.1548   4228.75
 12.1641   4215.91
 12.1735   4211.48
 12.1829   4181.95
 12.1922   4167.89
 12.2016   4167.04
 12.2109   4165.17
 12.2203   4155.17
 12.2297   4132.62
 12.239   4138.14
 12.2484   4119.18
 12.2577   4122.71
 12.2671   4114.83
 12.2765   4125.09
 12.2858   4110.25
 12.2952   4112.28
 12.3045   4112.28
 12.3139   4107.81
 12.3233   4105.37
 12.3326   4113.21
 12.342   4115.28
 12.3513   4124.87
 12.3607   4132.12
 12.3701   4147.3
 12.3794   4158.38
 12.3888   4162.42
 12.3981   4164.19
 12.4075   4167.43
 12.4169   4170.45
 12.4262   4173.21
 12.4356   4173.66
 12.4449   4177.47
 12.4543   4156.7
 12.4637   4152.58
 12.473   4143.69
 12.4824   4135.76
 12.4917   4125.87
 12.5011   4113.22
 12.5105   4115.04
 12.5198   4102.69
 12.5292   4091.87
 12.5385   4091.04
 12.5479   4112.27
 12.5573   4120.33
 12.5666   4102.27
 12.576   4099.27
 12.5853   4114.22
 12.5947   4079.13
 12.6041   4086.03
 12.6134   4092.32
 12.6228   4100.51
 12.6321   4107.39
 12.6415   4121.58
 12.6509   4129.87
 12.6602   4166.4
 12.6696   4179.38
 12.6789   4193.52
 12.6883   4215.97
 12.6977   4240.31