File: docs/GuiliangJun25_tutorial_output/integrals/MA2b-00003_om.chi
MA2b-00003.tif Azm= 0.00
2-Theta Angle (Degrees)
Intensity
       2500
 1.00702   7924.01
 1.01638   7911.09
 1.02574   7799.84
 1.0351   7776.9
 1.04446   7710.6
 1.05382   7681.65
 1.06318   7644.84
 1.07254   7552.67
 1.0819   7534.11
 1.09126   7501.08
 1.10062   7494.38
 1.10998   7427.59
 1.11934   7420.41
 1.1287   7380.21
 1.13806   7348.29
 1.14742   7270.26
 1.15678   7314.11
 1.16614   7248.56
 1.1755   7231.23
 1.18486   7222.41
 1.19422   7212.32
 1.20358   7180.11
 1.21294   7165.98
 1.2223   7182.35
 1.23166   7165.99
 1.24102   7136.39
 1.25038   7151.77
 1.25974   7134.44
 1.2691   7133.92
 1.27846   7121.17
 1.28782   7143.75
 1.29718   7112.2
 1.30654   7158.66
 1.3159   7147.72
 1.32526   7178.95
 1.33462   7178.76
 1.34398   7160.92
 1.35334   7171.04
 1.3627   7222.27
 1.37206   7219.86
 1.38142   7222.46
 1.39078   7251.57
 1.40014   7287.99
 1.4095   7329.74
 1.41886   7319.76
 1.42822   7363.93
 1.43758   7433.82
 1.44694   7460.46
 1.4563   7511.82
 1.46566   7591.64
 1.47502   7639.96
 1.48438   7711.12
 1.49374   7724.39
 1.5031   7744.51
 1.51246   7786.88
 1.52182   7814.4
 1.53118   7812.78
 1.54054   7802.64
 1.5499   7804.25
 1.55926   7752.6
 1.56862   7769.07
 1.57798   7741.13
 1.58734   7758.51
 1.5967   7743
 1.60606   7720.57
 1.61542   7754.38
 1.62478   7713.55
 1.63414   7717.16
 1.6435   7738.58
 1.65286   7713.83
 1.66222   7722.42
 1.67158   7717.96
 1.68094   7730.17
 1.6903   7705.05
 1.69966   7725.71
 1.70902   7737.12
 1.71838   7749.33
 1.72774   7770.51
 1.7371   7745.01
 1.74646   7776.89
 1.75582   7794.05
 1.76518   7806
 1.77454   7814.87
 1.7839   7856.08
 1.79326   7874.89
 1.80262   7885.6
 1.81198   7930.76
 1.82134   7967.45
 1.8307   7973.64
 1.84006   8035.16
 1.84942   8049.97
 1.85878   8114.26
 1.86814   8131.42
 1.8775   8175.01
 1.88686   8227.12
 1.89622   8258.32
 1.90558   8310.61
 1.91494   8360.68
 1.9243   8407.15
 1.93366   8452.83
 1.94302   8493.24
 1.95238   8523.29
 1.96174   8611.81
 1.9711   8633.93
 1.98046   8696.35
 1.98982   8792.77
 1.99918   8814.57
 2.00854   8867.25
 2.0179   8902.64
 2.02726   8964.66
 2.03662   9007.08
 2.04598   9065.66
 2.05534   9127.35
 2.0647   9209.08
 2.07406   9278.35
 2.08342   9433.76
 2.09278   9651.42
 2.10214   9990.65
 2.1115   10609.7
 2.12086   11863.6
 2.13022   14306.2
 2.13958   17977.3
 2.14894   21994.6
 2.1583   24423
 2.16766   25236.4
 2.17702   24511.6
 2.18638   22772.5
 2.19574   20244.9
 2.2051   17695.8
 2.21446   15771.4
 2.22382   14492.7
 2.23318   13698.8
 2.24254   13086.7
 2.2519   12366.6
 2.26126   11614.5
 2.27062   11059.3
 2.27998   10757.4
 2.28934   10576.1
 2.2987   10520.5
 2.30806   10538.9
 2.31742   10555.1
 2.32678   10591.9
 2.33614   10662.9
 2.3455   10695.6
 2.35486   10708.9
 2.36422   10792
 2.37358   10855.1
 2.38294   10903.4
 2.3923   10968
 2.40166   11039.6
 2.41102   11100.2
 2.42038   11186.6
 2.42974   11256.8
 2.4391   11336.4
 2.44846   11416.3
 2.45782   11486.7
 2.46718   11555.1
 2.47654   11615.6
 2.4859   11681.9
 2.49526   11774.5
 2.50462   11858.4
 2.51398   11937.9
 2.52334   11990
 2.5327   12062.1
 2.54206   12143.7
 2.55142   12194.9
 2.56078   12275.3
 2.57014   12322.2
 2.5795   12367.6
 2.58886   12439.9
 2.59822   12496.3
 2.60758   12545.8
 2.61694   12584.2
 2.6263   12631.8
 2.63566   12668.7
 2.64502   12705
 2.65438   12753.3
 2.66374   12779.1
 2.6731   12782.5
 2.68246   12812.8
 2.69182   12827.5
 2.70118   12841.1
 2.71054   12871.1
 2.7199   12869.7
 2.72926   12905.3
 2.73862   12899
 2.74798   12856.4
 2.75734   12850.5
 2.7667   12848.1
 2.77606   12825.2
 2.78542   12812.2
 2.79478   12821.7
 2.80414   12790.1
 2.8135   12767.8
 2.82286   12724
 2.83222   12689.7
 2.84158   12697.3
 2.85094   12663.1
 2.8603   12615.2
 2.86966   12579.9
 2.87902   12568.4
 2.88838   12510.7
 2.89774   12478.2
 2.9071   12442.1
 2.91646   12413
 2.92582   12383.4
 2.93518   12331.3
 2.94454   12304.1
 2.9539   12252.6
 2.96326   12204.3
 2.97262   12165.7
 2.98198   12110.4
 2.99134   12063.8
 3.0007   12009.8
 3.01006   11951.2
 3.01942   11926.8
 3.02878   11882.1
 3.03814   11815
 3.0475   11737.8
 3.05686   11655.1
 3.06622   11610.3
 3.07558   11541.6
 3.08494   11521.4
 3.0943   11444.9
 3.10366   11427
 3.11302   11397.2
 3.12238   11339
 3.13174   11306.1
 3.1411   11252.7
 3.15046   11227.1
 3.15982   11197.4
 3.16918   11173.1
 3.17854   11103.7
 3.1879   11082.3
 3.19726   11068.8
 3.20662   11044.8
 3.21598   10980.4
 3.22534   10967.2
 3.2347   10947.9
 3.24406   10892.1
 3.25342   10895.9
 3.26278   10873.7
 3.27214   10843.3
 3.2815   10820.1
 3.29086   10793.7
 3.30022   10808.6
 3.30958   10778
 3.31894   10779.3
 3.3283   10771
 3.33766   10763.3
 3.34702   10742.1
 3.35638   10723.6
 3.36574   10758.4
 3.3751   10731.2
 3.38446   10713.8
 3.39382   10743.7
 3.40318   10732.1
 3.41254   10749.7
 3.4219   10751.5
 3.43126   10766.9
 3.44062   10765.7
 3.44998   10763.2
 3.45934   10754.2
 3.4687   10749.2
 3.47806   10762.9
 3.48742   10749
 3.49678   10731.4
 3.50614   10752.6
 3.5155   10785.1
 3.52486   10749.9
 3.53422   10727.2
 3.54358   10773
 3.55294   10779.6
 3.5623   10727.8
 3.57166   10735.6
 3.58102   10759.2
 3.59038   10745.1
 3.59974   10695.9
 3.6091   10744.3
 3.61846   10740.2
 3.62782   10684.2
 3.63718   10654.8
 3.64654   10710.7
 3.6559   10742
 3.66526   10644.5
 3.67462   10565.1
 3.68398   10623.6
 3.69334   10593.1
 3.7027   10460.4
 3.71206   10457.5
 3.72142   10429.8
 3.73078   10314.4
 3.74014   10193.7
 3.7495   10183.3
 3.75886   10118
 3.76822   10011
 3.77758   9872.92
 3.78694   9878.45
 3.7963   9825.56
 3.80566   9642.37
 3.81502   9599.48
 3.82438   9668.57
 3.83374   9563.43
 3.8431   9366.33
 3.85246   9402.7
 3.86182   9377.2
 3.87118   9357.2
 3.88054   9203.76
 3.8899   9153.55
 3.89926   9152.16
 3.90862   9017.86
 3.91798   8940.2
 3.92734   8951.11
 3.9367   8888.42
 3.94606   8794.08
 3.95542   8796.35
 3.96478   8724.72
 3.97414   8680.81
 3.9835   8656.44
 3.99286   8579.73
 4.00222   8615.67
 4.01158   8518.69
 4.02094   8399.58
 4.0303   8419.89
 4.03966   8448.6
 4.04902   8330.79
 4.05838   8304.6
 4.06774   8295.64
 4.0771   8247.22
 4.08646   8213.6
 4.09582   8123.6
 4.10518   8173.53
 4.11454   8166.41
 4.1239   8027.95
 4.13326   8011.83
 4.14262   8049.88
 4.15198   8026.56
 4.16134   7907.1
 4.1707   7876.22
 4.18006   7920.47
 4.18942   7916.96
 4.19878   7830.78
 4.20814   7870.61
 4.2175   8007.52
 4.22686   7872.01
 4.23622   7787.71
 4.24558   7864.75
 4.25494   7942.25
 4.2643   7961.69
 4.27366   8259.43
 4.28302   8508.55
 4.29238   8758.85
 4.30174   8915.26
 4.3111   8950.66
 4.32046   8962.76
 4.32982   8971.81
 4.33918   8907.58
 4.34854   8967.24
 4.3579   8973.54
 4.36726   8824.85
 4.37662   8656.83
 4.38598   8529.75
 4.39534   8360.51
 4.4047   8227.14
 4.41406   8054.46
 4.42342   7949.61
 4.43278   7923.7
 4.44214   7783.4
 4.4515   7688.98
 4.46086   7702.05
 4.47022   7671.31
 4.47958   7600.73
 4.48894   7539.85
 4.4983   7489.56
 4.50766   7383.79
 4.51702   7231.26
 4.52638   7177.25
 4.53574   7112.61
 4.5451   7034.68
 4.55446   6995.82
 4.56382   6960.92
 4.57318   6943.74
 4.58254   6908.7
 4.5919   6863.93
 4.60126   6835.21
 4.61062   6821.54
 4.61998   6773.14
 4.62934   6729.97
 4.6387   6724.05
 4.64806   6681.02
 4.65742   6628.87
 4.66678   6653.55
 4.67614   6615.63
 4.6855   6600.29
 4.69486   6624.46
 4.70422   6635.81
 4.71358   6709.16
 4.72294   6816.82
 4.7323   6920.1
 4.74166   7027.21
 4.75102   7172
 4.76038   7318.13
 4.76974   7540.95
 4.7791   7882.35
 4.78846   8324.43
 4.79782   8779.95
 4.80718   9161.33
 4.81654   9294.81
 4.8259   9234.94
 4.83526   8989.56
 4.84462   8579.86
 4.85398   8119.71
 4.86334   7643.36
 4.8727   7337.05
 4.88206   7217.01
 4.89142   7275.64
 4.90078   7467.54
 4.91014   7734.09
 4.9195   7975.23
 4.92886   8145.29
 4.93822   8280.64
 4.94758   8411.53
 4.95694   8518.46
 4.9663   8652.35
 4.97566   8761.34
 4.98502   8823.02
 4.99438   8744.03
 5.00374   8512.64
 5.0131   8140.61
 5.02246   7722.42
 5.03182   7309.18
 5.04118   6989.95
 5.05054   6761.81
 5.0599   6634.26
 5.06926   6603.57
 5.07862   6700.51
 5.08798   6902.05
 5.09734   7144.72
 5.1067   7911.09
 5.11606   7764.81
 5.12542   8683.9
 5.13478   11243.2
 5.14414   13051.9
 5.1535   11949.7
 5.16286   9652.24
 5.17222   7699.64
 5.18158   6695.93
 5.19094   6718.54
 5.2003   6519.5
 5.20966   6325.71
 5.21902   6240.87
 5.22838   6116.15
 5.23774   6044.07
 5.2471   6006.45
 5.25646   5952.34
 5.26582   5917.78
 5.27518   5893.02
 5.28454   5887.68
 5.2939   5896.03
 5.30326   5857.29
 5.31262   5861.09
 5.32198   5857.85
 5.33134   5844.28
 5.3407   5829.04
 5.35006   5822.68
 5.35942   5825.85
 5.36878   5829.46
 5.37814   5840.23
 5.3875   5840.52
 5.39686   5851.12
 5.40622   5882.85
 5.41558   5896.81
 5.42494   5911.14
 5.4343   5959.81
 5.44366   6006.75
 5.45302   6034.96
 5.46238   6134.19
 5.47174   6244.58
 5.4811   6387.81
 5.49046   6589.18
 5.49982   6913.89
 5.50918   7426.86
 5.51854   8170.7
 5.5279   9165.68
 5.53726   10481.8
 5.54662   11910.5
 5.55598   13025.9
 5.56534   13494
 5.5747   13266.6
 5.58406   12557
 5.59342   11560.5
 5.60278   10574.5
 5.61214   9723.9
 5.6215   9014.61
 5.63086   8402.98
 5.64022   7948.3
 5.64958   7529.66
 5.65894   7160.81
 5.6683   6855.23
 5.67766   6619.31
 5.68702   6433.61
 5.69638   6305.39
 5.70574   6192.77
 5.7151   6122.95
 5.72446   6083.18
 5.73382   6042.57
 5.74318   6050.92
 5.75254   6058.33
 5.7619   6066.34
 5.77126   6046.42
 5.78062   6002.55
 5.78998   5979.17
 5.79934   5980.9
 5.8087   5960.54
 5.81806   5958.91
 5.82742   5977.4
 5.83678   5994.74
 5.84614   5995.54
 5.8555   6044.11
 5.86486   6120.01
 5.87422   6202.71
 5.88358   6304.34
 5.89294   6447.3
 5.9023   6636.14
 5.91166   7078.16
 5.92102   7561.3
 5.93038   7926.97
 5.93974   8852.8
 5.9491   8894.56
 5.95846   8369.87
 5.96782   8238.62
 5.97718   8015.2
 5.98654   7812.87
 5.9959   7643.8
 6.00526   7390.16
 6.01462   7173.02
 6.02398   6941.11
 6.03334   6703.03
 6.0427   6504.3
 6.05206   6371.99
 6.06142   6234.62
 6.07078   6117.79
 6.08014   6046.71
 6.0895   6003.79
 6.09886   5969.5
 6.10822   5918.01
 6.11758   5910.91
 6.12694   5896.45
 6.1363   5877.39
 6.14566   5839.76
 6.15502   5855.86
 6.16438   5865.87
 6.17374   5854.19
 6.1831   5837.4
 6.19246   5846.21
 6.20182   5884
 6.21118   5855.42
 6.22054   5848.59
 6.2299   5873.79
 6.23926   5878.24
 6.24862   5860.24
 6.25798   5890.71
 6.26734   5904.57
 6.2767   5903.16
 6.28606   5889.87
 6.29542   5898.18
 6.30478   5926.08
 6.31414   5929.25
 6.3235   5932.29
 6.33286   5937.64
 6.34222   5951.04
 6.35158   5944.62
 6.36094   5941.51
 6.3703   5938
 6.37966   5955.48
 6.38902   5951.23
 6.39838   5948.63
 6.40774   5964.87
 6.4171   6005.16
 6.42646   5988.45
 6.43582   6000.89
 6.44518   6042.2
 6.45454   6007.44
 6.4639   6015.98
 6.47326   5999.64
 6.48262   6023.75
 6.49198   6043.62
 6.50134   6019.38
 6.5107   6033.95
 6.52006   6080.22
 6.52942   6062.31
 6.53878   6096.44
 6.54814   6125.87
 6.5575   6146.67
 6.56686   6166.89
 6.57622   6165.95
 6.58558   6194.67
 6.59494   6240.47
 6.6043   6218.1
 6.61366   6205.87
 6.62302   6246.6
 6.63238   6295.3
 6.64174   6262.42
 6.6511   6295.51
 6.66046   6343.46
 6.66982   6342.93
 6.67918   6380.17
 6.68854   6363.8
 6.6979   6376.57
 6.70726   6449.42
 6.71662   6459.17
 6.72598   6480.5
 6.73534   6539.85
 6.7447   6572.63
 6.75406   6602.88
 6.76342   6636.66
 6.77278   6713.76
 6.78214   6709.41
 6.7915   6715.6
 6.80086   6699.71
 6.81022   6744.73
 6.81958   6787.29
 6.82894   6766.99
 6.8383   6819.85
 6.84766   6929.41
 6.85702   6945.87
 6.86638   7025.34
 6.87574   7115.24
 6.8851   7203.57
 6.89446   7309.04
 6.90382   7459.43
 6.91318   7615.77
 6.92254   7794.64
 6.9319   7936.77
 6.94126   7982.71
 6.95062   8081.81
 6.95998   8132.08
 6.96934   8098.62
 6.9787   8149.17
 6.98806   8153.16
 6.99742   8118.81
 7.00678   8118.92
 7.01614   8059.67
 7.0255   8022.49
 7.03486   7926.79
 7.04422   7817.23
 7.05358   7694.61
 7.06294   7651.03
 7.0723   7502.54
 7.08166   7293.5
 7.09102   7125.11
 7.10038   7023.12
 7.10974   6910.34
 7.1191   6853.33
 7.12846   6813.98
 7.13782   6777.02
 7.14718   6753.04
 7.15654   6736.4
 7.1659   6692.58
 7.17526   6708.41
 7.18462   6678.49
 7.19398   6667.8
 7.20334   6664.54
 7.2127   6662.14
 7.22206   6634.33
 7.23142   6634.58
 7.24078   6649.04
 7.25014   6666.9
 7.2595   6664.6
 7.26886   6669.66
 7.27822   6683.39
 7.28758   6679.26
 7.29694   6643.21
 7.3063   6652.84
 7.31566   6681
 7.32502   6717.57
 7.33438   6743.65
 7.34374   6808.81
 7.3531   6846.24
 7.36246   6874.77
 7.37182   6910.19
 7.38118   6917.77
 7.39054   6933.7
 7.3999   6945.29
 7.40926   6955.81
 7.41862   6987.55
 7.42798   7022.53
 7.43734   7065.37
 7.4467   7099.01
 7.45606   7141.92
 7.46542   7182.66
 7.47478   7234.73
 7.48414   7266.62
 7.4935   7298.96
 7.50286   7336.21
 7.51222   7389.09
 7.52158   7412.61
 7.53094   7452.71
 7.5403   7511.36
 7.54966   7539.69
 7.55902   7554.57
 7.56838   7555.29
 7.57774   7541.28
 7.5871   7486.06
 7.59646   7435.11
 7.60582   7289.6
 7.61518   7166.27
 7.62454   6957.88
 7.6339   6777.27
 7.64326   6602.09
 7.65262   6480.17
 7.66198   6384.86
 7.67134   6303.09
 7.6807   6256.96
 7.69006   6205.19
 7.69942   6159.11
 7.70878   6131.09
 7.71814   6079.89
 7.7275   6064.11
 7.73686   6042.33
 7.74622   6015.36
 7.75558   5965.44
 7.76494   5955.23
 7.7743   5948.91
 7.78366   5916.31
 7.79302   5882.97
 7.80238   5863.14
 7.81174   5862.11
 7.8211   5830.79
 7.83046   5799.95
 7.83982   5798.23
 7.84918   5793.69
 7.85854   5761.9
 7.8679   5718.22
 7.87726   5728.71
 7.88662   5717.78
 7.89598   5698.18
 7.90534   5657.77
 7.9147   5657.56
 7.92406   5662.82
 7.93342   5636.7
 7.94278   5622.8
 7.95214   5624.48
 7.9615   5635.42
 7.97086   5610.91
 7.98022   5572.06
 7.98958   5602.75
 7.99894   5581.3
 8.0083   5562.51
 8.01766   5550.51
 8.02702   5545.2
 8.03638   5551.93
 8.04574   5542.84
 8.0551   5551.86
 8.06446   5584.27
 8.07382   5661.54
 8.08318   5726.04
 8.09254   5771.42
 8.1019   5875.25
 8.11126   5946.77
 8.12062   5962.61
 8.12998   5978.14
 8.13934   6000
 8.1487   6046.15
 8.15806   6053.59
 8.16742   6082.06
 8.17678   6193.01
 8.18614   6311.56
 8.1955   6446.93
 8.20486   6605.1
 8.21422   6808.76
 8.22358   6986.78
 8.23294   7142.32
 8.2423   7231.43
 8.25166   7283.54
 8.26102   7246.31
 8.27038   7174.38
 8.27974   7068.42
 8.2891   6957.5
 8.29846   6791.61
 8.30782   6581.57
 8.31718   6371.42
 8.32654   6128.43
 8.3359   5972.43
 8.34526   5836.07
 8.35462   5753.98
 8.36398   5735.32
 8.37334   5885.5
 8.3827   6216.24
 8.39206   6345.07
 8.40142   6896.98
 8.41078   7134.52
 8.42014   6903.86
 8.4295   6364.39
 8.43886   6286.61
 8.44822   6045.94
 8.45758   6017.46
 8.46694   6061.07
 8.4763   6121.58
 8.48566   6189.48
 8.49502   6269.76
 8.50438   6326.88
 8.51374   6374.34
 8.5231   6439.16
 8.53246   6479.06
 8.54182   6531.66
 8.55118   6557.02
 8.56054   6547.58
 8.5699   6515.52
 8.57926   6471.93
 8.58862   6382.2
 8.59798   6300.75
 8.60734   6206.99
 8.6167   6121.16
 8.62606   6022.72
 8.63542   5922.43
 8.64478   5844.42
 8.65414   5775.8
 8.6635   5712.64
 8.67286   5673.62
 8.68222   5632.74
 8.69158   5600.8
 8.70094   5586.72
 8.7103   5564.9
 8.71966   5538.1
 8.72902   5531.22
 8.73838   5508.3
 8.74774   5509.67
 8.7571   5471.84
 8.76646   5464.67
 8.77582   5435.65
 8.78518   5420.62
 8.79454   5396.92
 8.8039   5370.23
 8.81326   5350.19
 8.82262   5319.85
 8.83198   5287.41
 8.84134   5254.46
 8.8507   5204.64
 8.86006   5154.54
 8.86942   5110.95
 8.87878   5080.3
 8.88814   5039.99
 8.8975   5026.47
 8.90686   5010.92
 8.91622   5001.34
 8.92558   5006.01
 8.93494   4981.99
 8.9443   4985.87
 8.95366   4992
 8.96302   4995.51
 8.97238   4991.1
 8.98174   4992.02
 8.9911   4986.02
 9.00046   4978.27
 9.00982   4981.5
 9.01918   4971.54
 9.02854   4945.97
 9.0379   4930.4
 9.04726   4920.38
 9.05662   4909.52
 9.06598   4925.15
 9.07534   4924.56
 9.0847   4918.09
 9.09406   4925.1
 9.10342   4930.74
 9.11278   4931.52
 9.12214   4942.34
 9.1315   4963.82
 9.14086   4975.73
 9.15022   4985.06
 9.15958   4992.62
 9.16894   5014.47
 9.1783   5049.29
 9.18766   5074.67
 9.19702   5096.6
 9.20638   5132.83
 9.21574   5199.27
 9.2251   5243.22
 9.23446   5294.92
 9.24382   5352.04
 9.25318   5425.83
 9.26254   5493.74
 9.2719   5558.75
 9.28126   5615.16
 9.29062   5664.16
 9.29998   5695.87
 9.30934   5712.3
 9.3187   5728.78
 9.32806   5734.89
 9.33742   5731.3
 9.34678   5723.27
 9.35614   5697.1
 9.3655   5660.46
 9.37486   5597.52
 9.38422   5546.28
 9.39358   5498.39
 9.40294   5432.49
 9.4123   5377.87
 9.42166   5343.45
 9.43102   5292.93
 9.44038   5282.58
 9.44974   5262.02
 9.4591   5242.85
 9.46846   5248.33
 9.47782   5271.33
 9.48718   5283.7
 9.49654   5286.69
 9.5059   5289.34
 9.51526   5287.08
 9.52462   5278.37
 9.53398   5281.93
 9.54334   5278.22
 9.5527   5284.93
 9.56206   5294.79
 9.57142   5305.82
 9.58078   5308.34
 9.59014   5331.03
 9.5995   5336.51
 9.60886   5348.68
 9.61822   5352.32
 9.62758   5344.5
 9.63694   5330.55
 9.6463   5286.79
 9.65566   5294.17
 9.66502   5288.04
 9.67438   5280.23
 9.68374   5254.04
 9.6931   5243.87
 9.70246   5218.67
 9.71182   5184.16
 9.72118   5145.32
 9.73054   5120.35
 9.7399   5091.06
 9.74926   5077.42
 9.75862   5080.44
 9.76798   5084.8
 9.77734   5121.4
 9.7867   5143.75
 9.79606   5201.5
 9.80542   5293.65
 9.81478   5456.52
 9.82414   5740.74
 9.8335   6442.01
 9.84286   7615.07
 9.85222   9042.27
 9.86158   11073.4
 9.87094   10525.6
 9.8803   8591
 9.88966   6956.06
 9.89902   6263.63
 9.90838   5793.39
 9.91774   5614.76
 9.9271   5546.31
 9.93646   5502.27
 9.94582   5469.1
 9.95518   5476.02
 9.96454   5455.32
 9.9739   5446.82
 9.98326   5432.78
 9.99262   5421.31
 10.002   5419.91
 10.0113   5392.4
 10.0207   5378.08
 10.0301   5334.19
 10.0394   5304.07
 10.0488   5283.53
 10.0581   5263.39
 10.0675   5239.57
 10.0769   5227.14
 10.0862   5211.07
 10.0956   5198.36
 10.1049   5203.21
 10.1143   5200.26
 10.1237   5204.52
 10.133   5209.64
 10.1424   5230.33
 10.1517   5241.61
 10.1611   5257.97
 10.1705   5274.22
 10.1798   5289.93
 10.1892   5293.26
 10.1985   5337.66
 10.2079   5362.44
 10.2173   5371.73
 10.2266   5389.34
 10.236   5409.2
 10.2453   5421.39
 10.2547   5462.16
 10.2641   5560.92
 10.2734   5719.13
 10.2828   5574.25
 10.2921   5834.2
 10.3015   5951.37
 10.3109   5864.08
 10.3202   5673.09
 10.3296   5881.8
 10.3389   5429.45
 10.3483   5286.1
 10.3577   5199.44
 10.367   5161.55
 10.3764   5160.49
 10.3857   5145.09
 10.3951   5154
 10.4045   5140.88
 10.4138   5154.98
 10.4232   5174.54
 10.4325   5166.31
 10.4419   5176.38
 10.4513   5196.55
 10.4606   5210.25
 10.47   5232.05
 10.4793   5237.14
 10.4887   5239.51
 10.4981   5256.57
 10.5074   5249.31
 10.5168   5236.85
 10.5261   5244.38
 10.5355   5236.37
 10.5449   5216.46
 10.5542   5194.34
 10.5636   5173.37
 10.5729   5147.66
 10.5823   5126.34
 10.5917   5117.9
 10.601   5087.03
 10.6104   5087.2
 10.6197   5065.8
 10.6291   5072.55
 10.6385   5057.69
 10.6478   5050.97
 10.6572   5050.41
 10.6665   5046.69
 10.6759   5030.28
 10.6853   5024.76
 10.6946   5039.59
 10.704   5038.58
 10.7133   5053.14
 10.7227   5063
 10.7321   5084.99
 10.7414   5103.19
 10.7508   5126.14
 10.7601   5117.45
 10.7695   5123.42
 10.7789   5116.32
 10.7882   5118.03
 10.7976   5106.06
 10.8069   5109.74
 10.8163   5091.24
 10.8257   5076.44
 10.835   5067.17
 10.8444   5058.33
 10.8537   5045.89
 10.8631   5054.26
 10.8725   5034.02
 10.8818   5004.56
 10.8912   4979.4
 10.9005   4966.02
 10.9099   4948.69
 10.9193   4916.66
 10.9286   4895.05
 10.938   4893.75
 10.9473   4859.52
 10.9567   4842.14
 10.9661   4835.62
 10.9754   4839.05
 10.9848   4822.06
 10.9941   4803.3
 11.0035   4798.78
 11.0129   4808.02
 11.0222   4817.02
 11.0316   4818.45
 11.0409   4820.3
 11.0503   4817.82
 11.0597   4849.54
 11.069   4845.41
 11.0784   4871.03
 11.0877   4892.1
 11.0971   4930.91
 11.1065   4957.47
 11.1158   4988.67
 11.1252   5024.17
 11.1345   5032.03
 11.1439   5029.34
 11.1533   5019.96
 11.1626   5007.01
 11.172   4983.26
 11.1813   4962.1
 11.1907   4936.55
 11.2001   4901.08
 11.2094   4893.47
 11.2188   4872.75
 11.2281   4868.68
 11.2375   4842.38
 11.2469   4829.77
 11.2562   4802.12
 11.2656   4785.76
 11.2749   4750.66
 11.2843   4746.98
 11.2937   4720.39
 11.303   4706.38
 11.3124   4691.12
 11.3217   4676.35
 11.3311   4660.46
 11.3405   4635.75
 11.3498   4615.73
 11.3592   4609.95
 11.3685   4600.23
 11.3779   4600.36
 11.3873   4570.8
 11.3966   4558.04
 11.406   4568.93
 11.4153   4554.52
 11.4247   4534.08
 11.4341   4529.56
 11.4434   4530.97
 11.4528   4526.09
 11.4621   4519.61
 11.4715   4514.26
 11.4809   4505.77
 11.4902   4505.05
 11.4996   4494.35
 11.5089   4476.16
 11.5183   4475.28
 11.5277   4480.73
 11.537   4463.76
 11.5464   4447
 11.5557   4442.11
 11.5651   4430.69
 11.5745   4425.62
 11.5838   4413.18
 11.5932   4423.9
 11.6025   4412.93
 11.6119   4416.01
 11.6213   4417.16
 11.6306   4404.49
 11.64   4400.87
 11.6493   4385.68
 11.6587   4384.54
 11.6681   4369.05
 11.6774   4370.68
 11.6868   4368.6
 11.6961   4354.63
 11.7055   4352.19
 11.7149   4351.06
 11.7242   4353.42
 11.7336   4353.49
 11.7429   4356.99
 11.7523   4350.12
 11.7617   4347.9
 11.771   4358.45
 11.7804   4349.79
 11.7897   4351.98
 11.7991   4356.75
 11.8085   4363.45
 11.8178   4370.17
 11.8272   4379
 11.8365   4377.14
 11.8459   4391.3
 11.8553   4415.9
 11.8646   4441.41
 11.874   4488
 11.8833   4525.13
 11.8927   4571.98
 11.9021   4623.66
 11.9114   4634.15
 11.9208   4593.04
 11.9301   4573.28
 11.9395   4568.46
 11.9489   4517.28
 11.9582   4515.06
 11.9676   4533.61
 11.9769   4535.95
 11.9863   4534.53
 11.9957   4533.07
 12.005   4540.26
 12.0144   4543.75
 12.0237   4524.95
 12.0331   4518.85
 12.0425   4512.42
 12.0518   4496.26
 12.0612   4488.94
 12.0705   4478.21
 12.0799   4468.3
 12.0893   4473.81
 12.0986   4449.46
 12.108   4438.83
 12.1173   4424.12
 12.1267   4388.89
 12.1361   4364.3
 12.1454   4337.45
 12.1548   4299.23
 12.1641   4260.36
 12.1735   4239.82
 12.1829   4206
 12.1922   4192.7
 12.2016   4178.83
 12.2109   4159.91
 12.2203   4148.83
 12.2297   4141.63
 12.239   4131.54
 12.2484   4124.6
 12.2577   4114.97
 12.2671   4109.23
 12.2765   4112.71
 12.2858   4100.31
 12.2952   4105.71
 12.3045   4103.73
 12.3139   4102.03
 12.3233   4104.4
 12.3326   4113.62
 12.342   4105.78
 12.3513   4124.2
 12.3607   4125.46
 12.3701   4133.12
 12.3794   4140.56
 12.3888   4148.83
 12.3981   4149.24
 12.4075   4152.72
 12.4169   4155.86
 12.4262   4155.5
 12.4356   4165.35
 12.4449   4168.39
 12.4543   4170.17
 12.4637   4174.68
 12.473   4182.21
 12.4824   4182.91
 12.4917   4179.2
 12.5011   4168.97
 12.5105   4176.64
 12.5198   4161.74
 12.5292   4164.24
 12.5385   4170.31
 12.5479   4163.13
 12.5573   4162.94
 12.5666   4163.71
 12.576   4169.86
 12.5853   4182.27
 12.5947   4192.78
 12.6041   4200.68
 12.6134   4228.5
 12.6228   4232.29
 12.6321   4244.79
 12.6415   4242.8
 12.6509   4264.01
 12.6602   4253.41
 12.6696   4262.59
 12.6789   4263.24
 12.6883   4242.79
 12.6977   4240.14