File: docs/GuiliangJun25_tutorial_output/integrals/MA2b-00003_spotsmasked.chi
MA2b-00003.tif Azm= 0.00
2-Theta Angle (Degrees)
Intensity
       2500
 1.00702   7929.54
 1.01638   7911.09
 1.02574   7799.84
 1.0351   7776.9
 1.04446   7710.6
 1.05382   7681.65
 1.06318   7644.84
 1.07254   7552.67
 1.0819   7542.99
 1.09126   7501.08
 1.10062   7498.97
 1.10998   7427.59
 1.11934   7420.41
 1.1287   7380.21
 1.13806   7352.96
 1.14742   7270.26
 1.15678   7314.11
 1.16614   7254.35
 1.1755   7231.23
 1.18486   7222.41
 1.19422   7212.32
 1.20358   7180.11
 1.21294   7165.98
 1.2223   7182.35
 1.23166   7170.53
 1.24102   7136.39
 1.25038   7147.47
 1.25974   7134.44
 1.2691   7133.92
 1.27846   7117.24
 1.28782   7147.64
 1.29718   7112.2
 1.30654   7158.66
 1.3159   7152.27
 1.32526   7178.95
 1.33462   7174.53
 1.34398   7160.92
 1.35334   7171.04
 1.3627   7218.56
 1.37206   7216.3
 1.38142   7222.46
 1.39078   7254.68
 1.40014   7287.99
 1.4095   7329.74
 1.41886   7323.3
 1.42822   7366.92
 1.43758   7437.66
 1.44694   7460.46
 1.4563   7511.82
 1.46566   7588.19
 1.47502   7639.96
 1.48438   7711.12
 1.49374   7724.39
 1.5031   7744.51
 1.51246   7786.88
 1.52182   7814.4
 1.53118   7816.04
 1.54054   7802.64
 1.5499   7800.58
 1.55926   7752.6
 1.56862   7766.04
 1.57798   7741.13
 1.58734   7758.51
 1.5967   7739.69
 1.60606   7720.71
 1.61542   7754.38
 1.62478   7713.55
 1.63414   7720.1
 1.6435   7738.58
 1.65286   7713.83
 1.66222   7722.42
 1.67158   7717.96
 1.68094   7736.17
 1.6903   7705.05
 1.69966   7728.48
 1.70902   7737.56
 1.71838   7749.33
 1.72774   7774.04
 1.7371   7745.01
 1.74646   7776.89
 1.75582   7794.05
 1.76518   7806
 1.77454   7814.87
 1.7839   7856.08
 1.79326   7874.89
 1.80262   7885.6
 1.81198   7930.76
 1.82134   7970.22
 1.8307   7973.64
 1.84006   8035.16
 1.84942   8052.62
 1.85878   8109.47
 1.86814   8133.87
 1.8775   8172.22
 1.88686   8231.74
 1.89622   8252.9
 1.90558   8310.61
 1.91494   8360.72
 1.9243   8409.42
 1.93366   8452.83
 1.94302   8495.95
 1.95238   8518.62
 1.96174   8611.81
 1.9711   8631.54
 1.98046   8696.35
 1.98982   8792.77
 1.99918   8816.96
 2.00854   8859.7
 2.0179   8902.64
 2.02726   8969.76
 2.03662   9007.41
 2.04598   9060.64
 2.05534   9127.35
 2.0647   9204.53
 2.07406   9278.35
 2.08342   9433.76
 2.09278   9651.42
 2.10214   9990.65
 2.1115   10609.7
 2.12086   11863.6
 2.13022   14306.2
 2.13958   17977.3
 2.14894   21994.6
 2.1583   24423
 2.16766   25236.4
 2.17702   24511.6
 2.18638   22772.5
 2.19574   20244.9
 2.2051   17695.8
 2.21446   15771.4
 2.22382   14492.7
 2.23318   13698.8
 2.24254   13086.7
 2.2519   12366.6
 2.26126   11621.2
 2.27062   11059.3
 2.27998   10757.4
 2.28934   10580.3
 2.2987   10523.3
 2.30806   10538.9
 2.31742   10550.8
 2.32678   10591.9
 2.33614   10662.9
 2.3455   10697.8
 2.35486   10712.6
 2.36422   10792.4
 2.37358   10857.6
 2.38294   10903.4
 2.3923   10968
 2.40166   11039.6
 2.41102   11096.6
 2.42038   11186.6
 2.42974   11258.4
 2.4391   11334.8
 2.44846   11416.3
 2.45782   11492
 2.46718   11553.4
 2.47654   11615.3
 2.4859   11680
 2.49526   11774.5
 2.50462   11860.1
 2.51398   11938.1
 2.52334   11990
 2.5327   12067.2
 2.54206   12143.7
 2.55142   12194.9
 2.56078   12277.5
 2.57014   12322.2
 2.5795   12365.6
 2.58886   12436.4
 2.59822   12496.3
 2.60758   12547.6
 2.61694   12582.4
 2.6263   12631.8
 2.63566   12670.8
 2.64502   12707.2
 2.65438   12751.6
 2.66374   12769.1
 2.6731   12780.8
 2.68246   12811.1
 2.69182   12825.9
 2.70118   12841.5
 2.71054   12872.8
 2.7199   12869.7
 2.72926   12905.3
 2.73862   12899
 2.74798   12856.5
 2.75734   12848.2
 2.7667   12851.7
 2.77606   12823.4
 2.78542   12815.2
 2.79478   12823.3
 2.80414   12792
 2.8135   12769.5
 2.82286   12724
 2.83222   12688.1
 2.84158   12699
 2.85094   12661.2
 2.8603   12615.2
 2.86966   12583.7
 2.87902   12568.4
 2.88838   12510.7
 2.89774   12478.2
 2.9071   12442.1
 2.91646   12414.5
 2.92582   12383.4
 2.93518   12331.3
 2.94454   12304.3
 2.9539   12252.6
 2.96326   12204.3
 2.97262   12165.7
 2.98198   12107.1
 2.99134   12065.3
 3.0007   12009.8
 3.01006   11949.5
 3.01942   11928.3
 3.02878   11883.7
 3.03814   11815.4
 3.0475   11739.7
 3.05686   11651.7
 3.06622   11611.7
 3.07558   11541.6
 3.08494   11521.4
 3.0943   11443.2
 3.10366   11425.6
 3.11302   11394.3
 3.12238   11339
 3.13174   11304.6
 3.1411   11252.7
 3.15046   11227.1
 3.15982   11194
 3.16918   11173.1
 3.17854   11105.2
 3.1879   11082.3
 3.19726   11068.8
 3.20662   11043.3
 3.21598   10978.9
 3.22534   10967.2
 3.2347   10946.3
 3.24406   10892.1
 3.25342   10894.2
 3.26278   10873.7
 3.27214   10841.4
 3.2815   10818.3
 3.29086   10793.7
 3.30022   10808.6
 3.30958   10776.7
 3.31894   10779.3
 3.3283   10771
 3.33766   10765.1
 3.34702   10742.1
 3.35638   10719.9
 3.36574   10758.4
 3.3751   10731.2
 3.38446   10713.8
 3.39382   10743.7
 3.40318   10732.1
 3.41254   10749.7
 3.4219   10751.4
 3.43126   10766.9
 3.44062   10770
 3.44998   10765.4
 3.45934   10760.7
 3.4687   10756.2
 3.47806   10765.2
 3.48742   10749
 3.49678   10731.4
 3.50614   10752.6
 3.5155   10785.1
 3.52486   10749.9
 3.53422   10727.2
 3.54358   10773
 3.55294   10782.9
 3.5623   10734.7
 3.57166   10735.6
 3.58102   10759.2
 3.59038   10745.1
 3.59974   10695.9
 3.6091   10744.3
 3.61846   10740.2
 3.62782   10684.2
 3.63718   10654.8
 3.64654   10710.7
 3.6559   10742
 3.66526   10644.5
 3.67462   10565.1
 3.68398   10623.6
 3.69334   10593.1
 3.7027   10460.4
 3.71206   10457.5
 3.72142   10429.8
 3.73078   10314.4
 3.74014   10193.7
 3.7495   10183.3
 3.75886   10118
 3.76822   10011
 3.77758   9872.92
 3.78694   9878.45
 3.7963   9825.56
 3.80566   9642.37
 3.81502   9599.48
 3.82438   9668.57
 3.83374   9563.43
 3.8431   9366.33
 3.85246   9402.7
 3.86182   9377.2
 3.87118   9357.2
 3.88054   9203.76
 3.8899   9153.55
 3.89926   9152.16
 3.90862   9017.86
 3.91798   8940.2
 3.92734   8951.11
 3.9367   8888.42
 3.94606   8794.08
 3.95542   8796.35
 3.96478   8724.72
 3.97414   8680.81
 3.9835   8656.44
 3.99286   8579.73
 4.00222   8615.67
 4.01158   8518.69
 4.02094   8399.58
 4.0303   8419.89
 4.03966   8448.6
 4.04902   8330.79
 4.05838   8304.6
 4.06774   8295.64
 4.0771   8247.22
 4.08646   8213.6
 4.09582   8123.6
 4.10518   8173.53
 4.11454   8166.41
 4.1239   8027.95
 4.13326   8011.83
 4.14262   8049.88
 4.15198   8026.56
 4.16134   7907.1
 4.1707   7876.22
 4.18006   7920.47
 4.18942   7916.96
 4.19878   7830.78
 4.20814   7870.61
 4.2175   8007.52
 4.22686   7872.01
 4.23622   7787.71
 4.24558   7864.75
 4.25494   7949.36
 4.2643   7969.92
 4.27366   8271.37
 4.28302   8508.55
 4.29238   8758.85
 4.30174   8915.26
 4.3111   8950.66
 4.32046   8962.76
 4.32982   8971.81
 4.33918   8907.58
 4.34854   8971.53
 4.3579   8973.54
 4.36726   8824.85
 4.37662   8656.83
 4.38598   8529.75
 4.39534   8360.51
 4.4047   8227.14
 4.41406   8054.46
 4.42342   7949.61
 4.43278   7923.7
 4.44214   7783.4
 4.4515   7688.98
 4.46086   7702.05
 4.47022   7671.31
 4.47958   7600.73
 4.48894   7539.85
 4.4983   7489.56
 4.50766   7383.79
 4.51702   7231.26
 4.52638   7177.25
 4.53574   7112.61
 4.5451   7034.68
 4.55446   6995.82
 4.56382   6960.92
 4.57318   6943.74
 4.58254   6908.7
 4.5919   6863.93
 4.60126   6835.21
 4.61062   6821.54
 4.61998   6773.14
 4.62934   6729.97
 4.6387   6724.05
 4.64806   6681.02
 4.65742   6628.87
 4.66678   6653.55
 4.67614   6615.63
 4.6855   6600.29
 4.69486   6624.46
 4.70422   6635.81
 4.71358   6709.16
 4.72294   6816.82
 4.7323   6920.1
 4.74166   7027.21
 4.75102   7172
 4.76038   7318.13
 4.76974   7540.95
 4.7791   7882.35
 4.78846   8324.43
 4.79782   8779.95
 4.80718   9161.33
 4.81654   9296.6
 4.8259   9234.94
 4.83526   8989.56
 4.84462   8579.86
 4.85398   8119.71
 4.86334   7643.36
 4.8727   7337.05
 4.88206   7215.58
 4.89142   7277.05
 4.90078   7467.54
 4.91014   7734.09
 4.9195   7978.08
 4.92886   8145.29
 4.93822   8281.49
 4.94758   8415.3
 4.95694   8519.97
 4.9663   8652.35
 4.97566   8765.34
 4.98502   8823.02
 4.99438   8744.03
 5.00374   8514
 5.0131   8140.61
 5.02246   7722.42
 5.03182   7309.18
 5.04118   6989.95
 5.05054   6763.15
 5.0599   6637.21
 5.06926   6621.38
 5.07862   6723.14
 5.08798   6995.76
 5.09734   7663.1
 5.1067   9369.21
 5.11606   12659.8
 5.12542   20891.6
 5.13478   39263.8
 5.14414   51086.3
 5.1535   41428.1
 5.16286   25995.1
 5.17222   14724.4
 5.18158   9370.1
 5.19094   7305.17
 5.2003   6696.02
 5.20966   6437.8
 5.21902   6257.7
 5.22838   6130.14
 5.23774   6049
 5.2471   6007.7
 5.25646   5955.66
 5.26582   5922.37
 5.27518   5894.19
 5.28454   5888.82
 5.2939   5897.22
 5.30326   5858.44
 5.31262   5862.22
 5.32198   5856.88
 5.33134   5846.28
 5.3407   5829.04
 5.35006   5821.75
 5.35942   5825.87
 5.36878   5831.48
 5.37814   5841.29
 5.3875   5840.52
 5.39686   5852.03
 5.40622   5882.85
 5.41558   5896.81
 5.42494   5912.09
 5.4343   5959.81
 5.44366   6007.72
 5.45302   6034.96
 5.46238   6134.19
 5.47174   6244.58
 5.4811   6387.81
 5.49046   6589.18
 5.49982   6917.53
 5.50918   7426.86
 5.51854   8170.7
 5.5279   9165.68
 5.53726   10481.8
 5.54662   11910.5
 5.55598   13021.8
 5.56534   13494
 5.5747   13266.6
 5.58406   12557
 5.59342   11560.5
 5.60278   10574.5
 5.61214   9723.9
 5.6215   9014.61
 5.63086   8402.98
 5.64022   7948.3
 5.64958   7529.66
 5.65894   7160.81
 5.6683   6855.23
 5.67766   6618.5
 5.68702   6435.52
 5.69638   6305.57
 5.70574   6191.91
 5.7151   6122.95
 5.72446   6084.14
 5.73382   6044.51
 5.74318   6053
 5.75254   6058.33
 5.7619   6068.18
 5.77126   6047.49
 5.78062   6002.55
 5.78998   5981.97
 5.79934   5981.87
 5.8087   5961.46
 5.81806   5959.88
 5.82742   5977.32
 5.83678   5995.72
 5.84614   5995.54
 5.8555   6045.03
 5.86486   6120.17
 5.87422   6201.57
 5.88358   6305.21
 5.89294   6467.03
 5.9023   6783.81
 5.91166   7477.86
 5.92102   8855.21
 5.93038   11504.5
 5.93974   13585.6
 5.9491   13365.3
 5.95846   11268.5
 5.96782   9256.36
 5.97718   8259.55
 5.98654   7902.24
 5.9959   7644.97
 6.00526   7390.57
 6.01462   7174.11
 6.02398   6942.57
 6.03334   6707.15
 6.0427   6511.56
 6.05206   6373.78
 6.06142   6234.62
 6.07078   6117.79
 6.08014   6045.74
 6.0895   6004.92
 6.09886   5970.68
 6.10822   5918.01
 6.11758   5910.91
 6.12694   5896.45
 6.1363   5878.58
 6.14566   5840.94
 6.15502   5857.07
 6.16438   5865.87
 6.17374   5854.19
 6.1831   5837.4
 6.19246   5846.21
 6.20182   5885.33
 6.21118   5855.42
 6.22054   5849.99
 6.2299   5873.79
 6.23926   5878.24
 6.24862   5861.33
 6.25798   5892.31
 6.26734   5904.57
 6.2767   5904.78
 6.28606   5889.87
 6.29542   5901.67
 6.30478   5927.55
 6.31414   5929.25
 6.3235   5933.93
 6.33286   5937.64
 6.34222   5951.04
 6.35158   5946.26
 6.36094   5943.07
 6.3703   5938
 6.37966   5955.48
 6.38902   5952.97
 6.39838   5950.42
 6.40774   5964.87
 6.4171   6005.16
 6.42646   5990.3
 6.43582   6004.82
 6.44518   6042.2
 6.45454   6007.44
 6.4639   6015.98
 6.47326   5999.64
 6.48262   6023.75
 6.49198   6043.62
 6.50134   6019.38
 6.5107   6036.22
 6.52006   6080.22
 6.52942   6062.31
 6.53878   6096.44
 6.54814   6130.87
 6.5575   6151.91
 6.56686   6166.89
 6.57622   6165.95
 6.58558   6194.67
 6.59494   6240.47
 6.6043   6218.1
 6.61366   6205.87
 6.62302   6246.6
 6.63238   6295.3
 6.64174   6262.42
 6.6511   6295.51
 6.66046   6343.46
 6.66982   6342.93
 6.67918   6380.17
 6.68854   6363.8
 6.6979   6376.57
 6.70726   6449.42
 6.71662   6459.17
 6.72598   6480.5
 6.73534   6539.85
 6.7447   6572.63
 6.75406   6602.88
 6.76342   6636.66
 6.77278   6713.76
 6.78214   6709.41
 6.7915   6715.6
 6.80086   6699.71
 6.81022   6744.73
 6.81958   6787.29
 6.82894   6766.99
 6.8383   6819.85
 6.84766   6929.41
 6.85702   6954.32
 6.86638   7025.34
 6.87574   7115.24
 6.8851   7203.57
 6.89446   7309.04
 6.90382   7459.43
 6.91318   7615.77
 6.92254   7794.64
 6.9319   7936.77
 6.94126   7982.71
 6.95062   8081.81
 6.95998   8132.08
 6.96934   8098.62
 6.9787   8149.17
 6.98806   8153.16
 6.99742   8118.81
 7.00678   8118.92
 7.01614   8062.62
 7.0255   8022.49
 7.03486   7926.79
 7.04422   7817.23
 7.05358   7694.61
 7.06294   7664.26
 7.0723   7505.65
 7.08166   7293.5
 7.09102   7127.66
 7.10038   7023.12
 7.10974   6910.34
 7.1191   6853.33
 7.12846   6813.98
 7.13782   6777.02
 7.14718   6755.41
 7.15654   6736.4
 7.1659   6694.6
 7.17526   6710.93
 7.18462   6678.49
 7.19398   6671.64
 7.20334   6664.54
 7.2127   6662.14
 7.22206   6634.33
 7.23142   6636.31
 7.24078   6649.04
 7.25014   6666.9
 7.2595   6664.6
 7.26886   6671.11
 7.27822   6684.83
 7.28758   6680.67
 7.29694   6644.48
 7.3063   6652.84
 7.31566   6683.63
 7.32502   6718.87
 7.33438   6744.75
 7.34374   6811.14
 7.3531   6847.38
 7.36246   6876.86
 7.37182   6912.24
 7.38118   6921.94
 7.39054   6933.7
 7.3999   6947.17
 7.40926   6958.86
 7.41862   6986.6
 7.42798   7022.53
 7.43734   7065.37
 7.4467   7099.01
 7.45606   7143.84
 7.46542   7182.66
 7.47478   7234.73
 7.48414   7266.62
 7.4935   7298.96
 7.50286   7336.21
 7.51222   7389.09
 7.52158   7411.45
 7.53094   7452.71
 7.5403   7515.69
 7.54966   7539.69
 7.55902   7554.57
 7.56838   7555.29
 7.57774   7544.39
 7.5871   7486.06
 7.59646   7435.11
 7.60582   7290.98
 7.61518   7166.27
 7.62454   6959.14
 7.6339   6777.27
 7.64326   6602.09
 7.65262   6480.17
 7.66198   6384.86
 7.67134   6304.56
 7.6807   6256.96
 7.69006   6206.82
 7.69942   6159.11
 7.70878   6131.09
 7.71814   6082.95
 7.7275   6064.11
 7.73686   6043.38
 7.74622   6016.78
 7.75558   5965.44
 7.76494   5955.23
 7.7743   5948.91
 7.78366   5916.31
 7.79302   5882.97
 7.80238   5863.14
 7.81174   5863.62
 7.8211   5833.87
 7.83046   5801.56
 7.83982   5799.81
 7.84918   5793.69
 7.85854   5761.9
 7.8679   5718.22
 7.87726   5730.4
 7.88662   5717.78
 7.89598   5698.18
 7.90534   5659.51
 7.9147   5659.39
 7.92406   5665.64
 7.93342   5636.7
 7.94278   5622.8
 7.95214   5625.96
 7.9615   5636.98
 7.97086   5614.51
 7.98022   5572.06
 7.98958   5602.75
 7.99894   5581.3
 8.0083   5562.51
 8.01766   5550.51
 8.02702   5545.2
 8.03638   5560.77
 8.04574   5542.84
 8.0551   5551.86
 8.06446   5585.79
 8.07382   5664.54
 8.08318   5726.04
 8.09254   5775.82
 8.1019   5875.25
 8.11126   5948.36
 8.12062   5965.13
 8.12998   5980.9
 8.13934   6000
 8.1487   6047.56
 8.15806   6053.59
 8.16742   6083.44
 8.17678   6193.01
 8.18614   6312.92
 8.1955   6450.39
 8.20486   6606.71
 8.21422   6808.76
 8.22358   6986.78
 8.23294   7143.65
 8.2423   7234.34
 8.25166   7284.81
 8.26102   7246.31
 8.27038   7174.38
 8.27974   7071.27
 8.2891   6957.5
 8.29846   6794.23
 8.30782   6581.57
 8.31718   6372.9
 8.32654   6134.57
 8.3359   5975.02
 8.34526   5836.07
 8.35462   5753.98
 8.36398   5735.32
 8.37334   5899
 8.3827   6341.14
 8.39206   7127.87
 8.40142   8189.8
 8.41078   8597.27
 8.42014   7943.83
 8.4295   6818.14
 8.43886   6314.71
 8.44822   6048.56
 8.45758   6017.46
 8.46694   6061.07
 8.4763   6121.58
 8.48566   6191.56
 8.49502   6271.65
 8.50438   6326.88
 8.51374   6378.34
 8.5231   6441.01
 8.53246   6483.13
 8.54182   6534.53
 8.55118   6557.98
 8.56054   6548.53
 8.5699   6517.43
 8.57926   6474.65
 8.58862   6384.92
 8.59798   6305.88
 8.60734   6207.88
 8.6167   6122.98
 8.62606   6023.5
 8.63542   5923.35
 8.64478   5844.42
 8.65414   5777.39
 8.6635   5712.64
 8.67286   5675.34
 8.68222   5632.74
 8.69158   5601.57
 8.70094   5586.72
 8.7103   5565.89
 8.71966   5538.1
 8.72902   5534.47
 8.73838   5510.46
 8.74774   5510.53
 8.7571   5471.84
 8.76646   5466.25
 8.77582   5437.15
 8.78518   5421.38
 8.79454   5396.92
 8.8039   5370.92
 8.81326   5352.32
 8.82262   5320.75
 8.83198   5288.16
 8.84134   5254.46
 8.8507   5206.33
 8.86006   5155.25
 8.86942   5112.49
 8.87878   5081.03
 8.88814   5039.99
 8.8975   5026.47
 8.90686   5010.92
 8.91622   5001.34
 8.92558   5006.63
 8.93494   4981.99
 8.9443   4986.5
 8.95366   4992.69
 8.96302   4996.49
 8.97238   4993.05
 8.98174   4992.65
 8.9911   4987.2
 9.00046   4978.27
 9.00982   4981.45
 9.01918   4971.41
 9.02854   4946.68
 9.0379   4932.99
 9.04726   4920.38
 9.05662   4909.43
 9.06598   4925.15
 9.07534   4925.69
 9.0847   4920.53
 9.09406   4925.07
 9.10342   4930.74
 9.11278   4929.27
 9.12214   4943.49
 9.1315   4965.65
 9.14086   4975.14
 9.15022   4985
 9.15958   4993.19
 9.16894   5015.76
 9.1783   5049.29
 9.18766   5075.73
 9.19702   5099.74
 9.20638   5134.02
 9.21574   5199.79
 9.2251   5243.82
 9.23446   5295.48
 9.24382   5352.04
 9.25318   5426.29
 9.26254   5494.24
 9.2719   5560.23
 9.28126   5614.58
 9.29062   5664.68
 9.29998   5698.98
 9.30934   5713.46
 9.3187   5730.25
 9.32806   5736.93
 9.33742   5731.77
 9.34678   5724.85
 9.35614   5695.9
 9.3655   5661.56
 9.37486   5597.52
 9.38422   5547.73
 9.39358   5499.42
 9.40294   5434.15
 9.4123   5378.88
 9.42166   5343.93
 9.43102   5293.03
 9.44038   5283.99
 9.44974   5262
 9.4591   5242.12
 9.46846   5249.43
 9.47782   5271.91
 9.48718   5283.78
 9.49654   5286.2
 9.5059   5289.34
 9.51526   5289.1
 9.52462   5278.99
 9.53398   5281.87
 9.54334   5278.83
 9.5527   5286.15
 9.56206   5295.97
 9.57142   5309.21
 9.58078   5309.45
 9.59014   5332.54
 9.5995   5338.33
 9.60886   5348.6
 9.61822   5352.32
 9.62758   5345.25
 9.63694   5331.18
 9.6463   5287.41
 9.65566   5294.76
 9.66502   5288.04
 9.67438   5280.85
 9.68374   5254.04
 9.6931   5245.14
 9.70246   5219.28
 9.71182   5185.91
 9.72118   5145.96
 9.73054   5121.02
 9.7399   5093.33
 9.74926   5078.64
 9.75862   5079.84
 9.76798   5085.44
 9.77734   5121.98
 9.7867   5145.71
 9.79606   5202.83
 9.80542   5296.12
 9.81478   5458.24
 9.82414   5795
 9.8335   6551.89
 9.84286   8210.69
 9.85222   10630.5
 9.86158   12547
 9.87094   11692.6
 9.8803   9280.68
 9.88966   7283.76
 9.89902   6271.4
 9.90838   5800.76
 9.91774   5614.76
 9.9271   5546.31
 9.93646   5506.22
 9.94582   5470.46
 9.95518   5477.38
 9.96454   5456
 9.9739   5447.52
 9.98326   5434.17
 9.99262   5422.21
 10.002   5421.29
 10.0113   5392.4
 10.0207   5379.48
 10.0301   5334.19
 10.0394   5304.76
 10.0488   5286.2
 10.0581   5264.65
 10.0675   5240.28
 10.0769   5227.14
 10.0862   5211.76
 10.0956   5202.25
 10.1049   5204.68
 10.1143   5201.61
 10.1237   5205.13
 10.133   5211.59
 10.1424   5230.33
 10.1517   5246.02
 10.1611   5258.64
 10.1705   5274.89
 10.1798   5290.57
 10.1892   5294.04
 10.1985   5341.17
 10.2079   5365
 10.2173   5375.91
 10.2266   5391.42
 10.236   5409.82
 10.2453   5424.14
 10.2547   5467.75
 10.2641   5574.75
 10.2734   5887.53
 10.2828   6618.04
 10.2921   7832.55
 10.3015   8590.58
 10.3109   8210.31
 10.3202   6926.38
 10.3296   6016.38
 10.3389   5482.03
 10.3483   5286.1
 10.3577   5199.44
 10.367   5162.28
 10.3764   5160.49
 10.3857   5146.77
 10.3951   5154
 10.4045   5141.7
 10.4138   5154.98
 10.4232   5175.3
 10.4325   5167.13
 10.4419   5177.19
 10.4513   5196.55
 10.4606   5213.26
 10.47   5232.05
 10.4793   5238.89
 10.4887   5240.33
 10.4981   5258.8
 10.5074   5250.17
 10.5168   5239.85
 10.5261   5244.38
 10.5355   5236.37
 10.5449   5216.46
 10.5542   5195.12
 10.5636   5174.07
 10.5729   5148.53
 10.5823   5127.19
 10.5917   5119.23
 10.601   5087.82
 10.6104   5088.68
 10.6197   5067.41
 10.6291   5073.26
 10.6385   5058.38
 10.6478   5051.73
 10.6572   5051.05
 10.6665   5047.32
 10.6759   5030.28
 10.6853   5026.81
 10.6946   5040.33
 10.704   5040.65
 10.7133   5055.49
 10.7227   5065.07
 10.7321   5085.6
 10.7414   5104.52
 10.7508   5127.31
 10.7601   5120.56
 10.7695   5125.88
 10.7789   5117.03
 10.7882   5119.63
 10.7976   5107.77
 10.8069   5110.42
 10.8163   5091.82
 10.8257   5077.64
 10.835   5068.37
 10.8444   5061.58
 10.8537   5049.89
 10.8631   5055.6
 10.8725   5036.8
 10.8818   5004.01
 10.8912   4982.27
 10.9005   4966.05
 10.9099   4948.69
 10.9193   4917.66
 10.9286   4897.03
 10.938   4894.23
 10.9473   4861.03
 10.9567   4842.7
 10.9661   4836.17
 10.9754   4839.48
 10.9848   4822.06
 10.9941   4803.8
 11.0035   4798.72
 11.0129   4809.91
 11.0222   4818.35
 11.0316   4818.11
 11.0409   4821.3
 11.0503   4819.34
 11.0597   4851.18
 11.069   4845.93
 11.0784   4871.09
 11.0877   4892.48
 11.0971   4930.91
 11.1065   4957.82
 11.1158   4986.6
 11.1252   5025.02
 11.1345   5032
 11.1439   5029.33
 11.1533   5020.37
 11.1626   5006.63
 11.172   4985.25
 11.1813   4962.58
 11.1907   4937.96
 11.2001   4901.88
 11.2094   4893.12
 11.2188   4872.14
 11.2281   4869.8
 11.2375   4841.09
 11.2469   4829.36
 11.2562   4801.37
 11.2656   4784.84
 11.2749   4750.95
 11.2843   4748.01
 11.2937   4722.24
 11.303   4705.95
 11.3124   4691.17
 11.3217   4677.46
 11.3311   4659.43
 11.3405   4633.78
 11.3498   4616.15
 11.3592   4610.6
 11.3685   4599.37
 11.3779   4600.7
 11.3873   4570.83
 11.3966   4557.25
 11.406   4567.35
 11.4153   4554.02
 11.4247   4534.02
 11.4341   4530.35
 11.4434   4531.37
 11.4528   4526.41
 11.4621   4517.58
 11.4715   4513.93
 11.4809   4505.74
 11.4902   4505.57
 11.4996   4494.25
 11.5089   4476.99
 11.5183   4474.05
 11.5277   4481.1
 11.537   4463.76
 11.5464   4445.27
 11.5557   4442.91
 11.5651   4430.69
 11.5745   4426.8
 11.5838   4413.19
 11.5932   4423.83
 11.6025   4413.93
 11.6119   4416.46
 11.6213   4417.74
 11.6306   4405.3
 11.64   4401.18
 11.6493   4386.02
 11.6587   4385.41
 11.6681   4369.05
 11.6774   4371.3
 11.6868   4369.88
 11.6961   4354.97
 11.7055   4352.54
 11.7149   4351.83
 11.7242   4354.97
 11.7336   4354.32
 11.7429   4358.33
 11.7523   4350.08
 11.7617   4349.49
 11.771   4358.84
 11.7804   4350.19
 11.7897   4353.61
 11.7991   4357.17
 11.8085   4366.06
 11.8178   4372.31
 11.8272   4379.45
 11.8365   4379.89
 11.8459   4393.18
 11.8553   4416.19
 11.8646   4444.23
 11.874   4516.39
 11.8833   4654.75
 11.8927   4860.07
 11.9021   5014.38
 11.9114   4974.09
 11.9208   4804.02
 11.9301   4649.91
 11.9395   4573.05
 11.9489   4518.23
 11.9582   4515.49
 11.9676   4534.61
 11.9769   4537.21
 11.9863   4535.44
 11.9957   4534.61
 12.005   4541.97
 12.0144   4544.12
 12.0237   4526.25
 12.0331   4520.09
 12.0425   4511.87
 12.0518   4497.53
 12.0612   4489.41
 12.0705   4478.19
 12.0799   4471.19
 12.0893   4475.64
 12.0986   4450.95
 12.108   4439.19
 12.1173   4424.95
 12.1267   4389.73
 12.1361   4365.88
 12.1454   4337.07
 12.1548   4300.42
 12.1641   4261.16
 12.1735   4240.58
 12.1829   4206.21
 12.1922   4192.38
 12.2016   4179.69
 12.2109   4160.59
 12.2203   4150.73
 12.2297   4142.46
 12.239   4133.13
 12.2484   4126.03
 12.2577   4115.29
 12.2671   4109.62
 12.2765   4114.04
 12.2858   4100.17
 12.2952   4106.77
 12.3045   4104.51
 12.3139   4102.75
 12.3233   4105.46
 12.3326   4115.48
 12.342   4107.13
 12.3513   4125.18
 12.3607   4126.78
 12.3701   4134.5
 12.3794   4141.15
 12.3888   4150.32
 12.3981   4150.31
 12.4075   4155.72
 12.4169   4156.21
 12.4262   4157.12
 12.4356   4166.73
 12.4449   4169.4
 12.4543   4171.67
 12.4637   4175.43
 12.473   4182.95
 12.4824   4183.2
 12.4917   4179.83
 12.5011   4170.27
 12.5105   4177.25
 12.5198   4163.08
 12.5292   4164.81
 12.5385   4172.31
 12.5479   4165.91
 12.5573   4163.77
 12.5666   4164.93
 12.576   4171.73
 12.5853   4182.99
 12.5947   4193.21
 12.6041   4200.68
 12.6134   4228.31
 12.6228   4232.51
 12.6321   4245.92
 12.6415   4243.43
 12.6509   4265.68
 12.6602   4253.74
 12.6696   4263.89
 12.6789   4264.78
 12.6883   4243.52
 12.6977   4240.17