File: docs/GuiliangJun25_tutorial_output/integrals/MA2b-00004_om.chi
MA2b-00004.tif Azm= 0.00
2-Theta Angle (Degrees)
Intensity
       2500
 1.00702   7906.36
 1.01638   7851.68
 1.02574   7786.81
 1.0351   7729.98
 1.04446   7682.13
 1.05382   7665.07
 1.06318   7587.16
 1.07254   7539.91
 1.0819   7513.49
 1.09126   7456.96
 1.10062   7433.78
 1.10998   7420.45
 1.11934   7371.56
 1.1287   7336.01
 1.13806   7299.73
 1.14742   7269.87
 1.15678   7260.78
 1.16614   7231.78
 1.1755   7168.91
 1.18486   7191.17
 1.19422   7180.91
 1.20358   7178.8
 1.21294   7110.33
 1.2223   7139.81
 1.23166   7130.17
 1.24102   7094.94
 1.25038   7121.17
 1.25974   7130.66
 1.2691   7104.71
 1.27846   7083.25
 1.28782   7128.47
 1.29718   7126.09
 1.30654   7137.55
 1.3159   7100.56
 1.32526   7134.82
 1.33462   7140.52
 1.34398   7170.21
 1.35334   7127.04
 1.3627   7170.23
 1.37206   7167.94
 1.38142   7174.43
 1.39078   7221.91
 1.40014   7248.53
 1.4095   7296.32
 1.41886   7336.02
 1.42822   7369.28
 1.43758   7395.52
 1.44694   7479.38
 1.4563   7511.6
 1.46566   7571.45
 1.47502   7574.95
 1.48438   7639.88
 1.49374   7698.56
 1.5031   7747.64
 1.51246   7752.18
 1.52182   7786.97
 1.53118   7772.7
 1.54054   7767.63
 1.5499   7777.62
 1.55926   7759.8
 1.56862   7729.26
 1.57798   7699.47
 1.58734   7685.18
 1.5967   7705.27
 1.60606   7710.33
 1.61542   7714.59
 1.62478   7700.9
 1.63414   7693.89
 1.6435   7697.76
 1.65286   7716.09
 1.66222   7699.73
 1.67158   7698.64
 1.68094   7715.67
 1.6903   7705.38
 1.69966   7713.6
 1.70902   7729.3
 1.71838   7719.83
 1.72774   7739.98
 1.7371   7734.1
 1.74646   7732.5
 1.75582   7782.98
 1.76518   7776.71
 1.77454   7778.48
 1.7839   7828.93
 1.79326   7834.61
 1.80262   7860.56
 1.81198   7909.05
 1.82134   7929.52
 1.8307   7970.59
 1.84006   7991.74
 1.84942   8015.08
 1.85878   8084.03
 1.86814   8103.96
 1.8775   8128.51
 1.88686   8209.52
 1.89622   8242.05
 1.90558   8286.39
 1.91494   8328.09
 1.9243   8376.22
 1.93366   8423.03
 1.94302   8497.12
 1.95238   8515.33
 1.96174   8600.25
 1.9711   8637.25
 1.98046   8678.08
 1.98982   8723.75
 1.99918   8782.37
 2.00854   8833.39
 2.0179   8892.79
 2.02726   8932.39
 2.03662   8993.4
 2.04598   9049.05
 2.05534   9113.65
 2.0647   9188.47
 2.07406   9320.4
 2.08342   9440.58
 2.09278   9717.09
 2.10214   10179.8
 2.1115   11009.4
 2.12086   12743.4
 2.13022   16053.3
 2.13958   20745.6
 2.14894   25051.9
 2.1583   26619.4
 2.16766   25817.8
 2.17702   23762.5
 2.18638   21289.5
 2.19574   18710.9
 2.2051   16335.9
 2.21446   14673.1
 2.22382   13622.4
 2.23318   12955
 2.24254   12457.1
 2.2519   11861.7
 2.26126   11338.1
 2.27062   10864.7
 2.27998   10604.6
 2.28934   10518.8
 2.2987   10472.5
 2.30806   10467.1
 2.31742   10492.6
 2.32678   10540.7
 2.33614   10583.3
 2.3455   10624.4
 2.35486   10697.3
 2.36422   10742.2
 2.37358   10814.2
 2.38294   10860.1
 2.3923   10950.2
 2.40166   11013.8
 2.41102   11087.2
 2.42038   11165.8
 2.42974   11215.6
 2.4391   11280
 2.44846   11370.5
 2.45782   11413.9
 2.46718   11501.8
 2.47654   11572.5
 2.4859   11647.8
 2.49526   11734.8
 2.50462   11799.5
 2.51398   11890.1
 2.52334   11948.5
 2.5327   12026
 2.54206   12103.8
 2.55142   12145.1
 2.56078   12206.4
 2.57014   12297.3
 2.5795   12333.6
 2.58886   12395
 2.59822   12463.1
 2.60758   12520.6
 2.61694   12550
 2.6263   12591.9
 2.63566   12646.1
 2.64502   12667.5
 2.65438   12707.4
 2.66374   12729.6
 2.6731   12736.9
 2.68246   12770.5
 2.69182   12782.8
 2.70118   12800.4
 2.71054   12819.5
 2.7199   12816.3
 2.72926   12820.9
 2.73862   12837
 2.74798   12803.9
 2.75734   12796.4
 2.7667   12790.5
 2.77606   12779.8
 2.78542   12779
 2.79478   12744.5
 2.80414   12745.5
 2.8135   12704.1
 2.82286   12665
 2.83222   12644.1
 2.84158   12601.2
 2.85094   12600.8
 2.8603   12556.5
 2.86966   12532.6
 2.87902   12502.4
 2.88838   12456.2
 2.89774   12428.1
 2.9071   12395.3
 2.91646   12351.8
 2.92582   12310.1
 2.93518   12284.6
 2.94454   12255.9
 2.9539   12201.7
 2.96326   12148.2
 2.97262   12116.1
 2.98198   12060.3
 2.99134   12030.4
 3.0007   11956.5
 3.01006   11888.6
 3.01942   11863.5
 3.02878   11810.8
 3.03814   11768.6
 3.0475   11684.3
 3.05686   11621.5
 3.06622   11556.8
 3.07558   11517.3
 3.08494   11487.3
 3.0943   11433.6
 3.10366   11383.6
 3.11302   11324.5
 3.12238   11298.9
 3.13174   11242.8
 3.1411   11225.7
 3.15046   11194.7
 3.15982   11147.2
 3.16918   11112.9
 3.17854   11105.6
 3.1879   11082.8
 3.19726   11041.6
 3.20662   11010.4
 3.21598   10955.9
 3.22534   10943.5
 3.2347   10906.7
 3.24406   10873.9
 3.25342   10855.6
 3.26278   10861
 3.27214   10806.6
 3.2815   10783.2
 3.29086   10768
 3.30022   10754.7
 3.30958   10749.6
 3.31894   10754.5
 3.3283   10737.6
 3.33766   10732.6
 3.34702   10702.6
 3.35638   10695.1
 3.36574   10715.8
 3.3751   10688
 3.38446   10698.6
 3.39382   10715.7
 3.40318   10725.7
 3.41254   10718.6
 3.4219   10708.1
 3.43126   10692.7
 3.44062   10728.1
 3.44998   10756.5
 3.45934   10712.5
 3.4687   10704.9
 3.47806   10753.7
 3.48742   10727.9
 3.49678   10678.6
 3.50614   10709.6
 3.5155   10729.6
 3.52486   10697.5
 3.53422   10693.7
 3.54358   10736.6
 3.55294   10722.8
 3.5623   10703.5
 3.57166   10720.5
 3.58102   10742.9
 3.59038   10719.7
 3.59974   10662.5
 3.6091   10708.4
 3.61846   10713.9
 3.62782   10639.3
 3.63718   10611.6
 3.64654   10679.6
 3.6559   10707.7
 3.66526   10634.3
 3.67462   10554.1
 3.68398   10602.8
 3.69334   10561
 3.7027   10422.3
 3.71206   10375.5
 3.72142   10449.8
 3.73078   10296.6
 3.74014   10189.8
 3.7495   10147.2
 3.75886   10083
 3.76822   9944.35
 3.77758   9792.5
 3.78694   9823.9
 3.7963   9820.45
 3.80566   9657.2
 3.81502   9557.79
 3.82438   9615.35
 3.83374   9543.3
 3.8431   9355.77
 3.85246   9359.33
 3.86182   9357.06
 3.87118   9344.64
 3.88054   9170.66
 3.8899   9159.52
 3.89926   9144.89
 3.90862   8971.44
 3.91798   8939.64
 3.92734   8949.2
 3.9367   8879.48
 3.94606   8781.49
 3.95542   8795.61
 3.96478   8727.82
 3.97414   8658.19
 3.9835   8630.85
 3.99286   8576.94
 4.00222   8588.5
 4.01158   8531.4
 4.02094   8403
 4.0303   8408.58
 4.03966   8448.43
 4.04902   8297.89
 4.05838   8259.56
 4.06774   8288.92
 4.0771   8257.36
 4.08646   8166.27
 4.09582   8106.42
 4.10518   8109.25
 4.11454   8122.88
 4.1239   8015.14
 4.13326   7988.99
 4.14262   8036.79
 4.15198   7967.9
 4.16134   7882.75
 4.1707   7869.26
 4.18006   7901.68
 4.18942   7890.06
 4.19878   7818.95
 4.20814   7856.59
 4.2175   8002.84
 4.22686   7861.19
 4.23622   7779.69
 4.24558   7892.15
 4.25494   7988.76
 4.2643   8081.68
 4.27366   8463.21
 4.28302   8760.65
 4.29238   9113.81
 4.30174   9206.78
 4.3111   9215.53
 4.32046   9136.66
 4.32982   8979.13
 4.33918   8868.46
 4.34854   8819.73
 4.3579   8791.18
 4.36726   8634.92
 4.37662   8465.43
 4.38598   8323.73
 4.39534   8177
 4.4047   8055.87
 4.41406   7892.77
 4.42342   7809.53
 4.43278   7807.78
 4.44214   7703.55
 4.4515   7610.19
 4.46086   7603.63
 4.47022   7584.72
 4.47958   7506.36
 4.48894   7463.3
 4.4983   7426.92
 4.50766   7322.5
 4.51702   7179.66
 4.52638   7134.64
 4.53574   7091.58
 4.5451   7019.21
 4.55446   6959.06
 4.56382   6938.36
 4.57318   6932.59
 4.58254   6884.17
 4.5919   6839.83
 4.60126   6811.46
 4.61062   6775.64
 4.61998   6745.12
 4.62934   6734.55
 4.6387   6719.67
 4.64806   6676.18
 4.65742   6628.97
 4.66678   6630.88
 4.67614   6618.99
 4.6855   6576.85
 4.69486   6609.59
 4.70422   6608.13
 4.71358   6659.46
 4.72294   6746.57
 4.7323   6817.79
 4.74166   6910.08
 4.75102   7027.16
 4.76038   7143.13
 4.76974   7327.73
 4.7791   7623.14
 4.78846   8004.32
 4.79782   8422.35
 4.80718   8830.57
 4.81654   9095.17
 4.8259   9255.13
 4.83526   9212.2
 4.84462   8936.06
 4.85398   8472.76
 4.86334   7952.62
 4.8727   7528.29
 4.88206   7318.83
 4.89142   7278.38
 4.90078   7375.42
 4.91014   7571.78
 4.9195   7764.2
 4.92886   7954.77
 4.93822   8125.94
 4.94758   8316.56
 4.95694   8543.46
 4.9663   8813.87
 4.97566   9069.23
 4.98502   9280.06
 4.99438   9285.53
 5.00374   9083.55
 5.0131   8673.22
 5.02246   8181.25
 5.03182   7646.64
 5.04118   7243.45
 5.05054   6938.34
 5.0599   6747.17
 5.06926   6681.56
 5.07862   6758.85
 5.08798   6951.85
 5.09734   7172.16
 5.1067   7924.93
 5.11606   7787.02
 5.12542   8647.36
 5.13478   11247.9
 5.14414   13095.2
 5.1535   12028.8
 5.16286   9716.77
 5.17222   7673.07
 5.18158   6708.01
 5.19094   6685.87
 5.2003   6523.36
 5.20966   6279.42
 5.21902   6235.18
 5.22838   6097.58
 5.23774   6058.23
 5.2471   6003.38
 5.25646   5966.36
 5.26582   5914.34
 5.27518   5892.8
 5.28454   5874.45
 5.2939   5869.29
 5.30326   5852.79
 5.31262   5845.95
 5.32198   5833.22
 5.33134   5834.07
 5.3407   5810.78
 5.35006   5800.99
 5.35942   5809.59
 5.36878   5807.17
 5.37814   5803.62
 5.3875   5804.13
 5.39686   5832.07
 5.40622   5846.88
 5.41558   5850.24
 5.42494   5876.81
 5.4343   5913.45
 5.44366   5938.59
 5.45302   5986.43
 5.46238   6055.37
 5.47174   6136.04
 5.4811   6271.16
 5.49046   6425.36
 5.49982   6664.71
 5.50918   7071.72
 5.51854   7640.7
 5.5279   8413.65
 5.53726   9442.54
 5.54662   10575.8
 5.55598   11521.9
 5.56534   11941.8
 5.5747   11843.3
 5.58406   11332.6
 5.59342   10576.7
 5.60278   9791.62
 5.61214   9101.18
 5.6215   8507.15
 5.63086   7977.83
 5.64022   7585.71
 5.64958   7235.46
 5.65894   6943.86
 5.6683   6700.01
 5.67766   6515.32
 5.68702   6362.45
 5.69638   6241.2
 5.70574   6156
 5.7151   6094
 5.72446   6080.25
 5.73382   6043.21
 5.74318   6053.94
 5.75254   6053.41
 5.7619   6068.08
 5.77126   6049.31
 5.78062   6007.3
 5.78998   6019.35
 5.79934   6008.9
 5.8087   5987.8
 5.81806   6000.86
 5.82742   6017.56
 5.83678   6029.98
 5.84614   6070.95
 5.8555   6131.39
 5.86486   6206.47
 5.87422   6310.23
 5.88358   6463.79
 5.89294   6632.5
 5.9023   6854.91
 5.91166   7332.36
 5.92102   7887.28
 5.93038   8353.89
 5.93974   9318.11
 5.9491   9452.22
 5.95846   8992.48
 5.96782   8922.21
 5.97718   8720.37
 5.98654   8508.39
 5.9959   8251.76
 6.00526   7929.51
 6.01462   7598.72
 6.02398   7289.98
 6.03334   6957.38
 6.0427   6703.76
 6.05206   6516.51
 6.06142   6371.23
 6.07078   6211.17
 6.08014   6129.8
 6.0895   6062.77
 6.09886   6004.85
 6.10822   5947.07
 6.11758   5932.73
 6.12694   5913.05
 6.1363   5893.71
 6.14566   5860.77
 6.15502   5859.12
 6.16438   5866.71
 6.17374   5848.39
 6.1831   5836.28
 6.19246   5840.65
 6.20182   5863.56
 6.21118   5854.44
 6.22054   5857.23
 6.2299   5867.89
 6.23926   5872.77
 6.24862   5874.88
 6.25798   5868.02
 6.26734   5884.3
 6.2767   5895.78
 6.28606   5886.81
 6.29542   5900.58
 6.30478   5916.72
 6.31414   5919.83
 6.3235   5902.2
 6.33286   5926.64
 6.34222   5942.28
 6.35158   5940.94
 6.36094   5923.84
 6.3703   5930.44
 6.37966   5936.53
 6.38902   5943.26
 6.39838   5938.81
 6.40774   5968.71
 6.4171   5994.21
 6.42646   5981.77
 6.43582   5988.42
 6.44518   6011.61
 6.45454   5994.75
 6.4639   5995.92
 6.47326   5996.4
 6.48262   6019.45
 6.49198   6016.09
 6.50134   6007.56
 6.5107   6027.02
 6.52006   6068.33
 6.52942   6059.8
 6.53878   6077.42
 6.54814   6112.2
 6.5575   6131.84
 6.56686   6129.33
 6.57622   6123.85
 6.58558   6157.14
 6.59494   6187.26
 6.6043   6195.64
 6.61366   6220.43
 6.62302   6238.6
 6.63238   6273.6
 6.64174   6268.93
 6.6511   6294.99
 6.66046   6338.05
 6.66982   6340.14
 6.67918   6373.47
 6.68854   6342.61
 6.6979   6351.52
 6.70726   6427.33
 6.71662   6439.97
 6.72598   6483.28
 6.73534   6545.32
 6.7447   6553.59
 6.75406   6579.05
 6.76342   6608.82
 6.77278   6698.1
 6.78214   6710.21
 6.7915   6709.17
 6.80086   6696.9
 6.81022   6727.89
 6.81958   6768.56
 6.82894   6767.79
 6.8383   6791.09
 6.84766   6896.87
 6.85702   6913.41
 6.86638   7010.77
 6.87574   7130.68
 6.8851   7217.34
 6.89446   7363.33
 6.90382   7537.72
 6.91318   7657.73
 6.92254   7883.34
 6.9319   8014.87
 6.94126   8058.63
 6.95062   8166.09
 6.95998   8175.15
 6.96934   8109.12
 6.9787   8102.9
 6.98806   8082.56
 6.99742   8024.01
 7.00678   7990.49
 7.01614   7920.77
 7.0255   7858.16
 7.03486   7777.6
 7.04422   7704.91
 7.05358   7606.42
 7.06294   7572.37
 7.0723   7452.82
 7.08166   7253.29
 7.09102   7076.37
 7.10038   6993.65
 7.10974   6905.37
 7.1191   6827.19
 7.12846   6799.29
 7.13782   6764.06
 7.14718   6737.37
 7.15654   6704.28
 7.1659   6676.4
 7.17526   6702.01
 7.18462   6676.94
 7.19398   6659.24
 7.20334   6634.76
 7.2127   6652.17
 7.22206   6615.65
 7.23142   6620.1
 7.24078   6620
 7.25014   6649.07
 7.2595   6655.79
 7.26886   6661.2
 7.27822   6656.86
 7.28758   6659.51
 7.29694   6639.03
 7.3063   6651.94
 7.31566   6669.98
 7.32502   6696.4
 7.33438   6744.34
 7.34374   6792.64
 7.3531   6813.26
 7.36246   6850.95
 7.37182   6891.02
 7.38118   6896.29
 7.39054   6927.56
 7.3999   6959.61
 7.40926   6970.77
 7.41862   6998.66
 7.42798   7059.31
 7.43734   7113.37
 7.4467   7165.61
 7.45606   7210.61
 7.46542   7263.12
 7.47478   7296.16
 7.48414   7285.47
 7.4935   7303.73
 7.50286   7315.17
 7.51222   7324.14
 7.52158   7316.37
 7.53094   7326.47
 7.5403   7338.05
 7.54966   7331.62
 7.55902   7323.45
 7.56838   7303.46
 7.57774   7290.92
 7.5871   7233.53
 7.59646   7170.91
 7.60582   7070.66
 7.61518   6969.4
 7.62454   6786.97
 7.6339   6644
 7.64326   6493.73
 7.65262   6420.91
 7.66198   6322.48
 7.67134   6253.2
 7.6807   6207.84
 7.69006   6169.74
 7.69942   6124.54
 7.70878   6100.52
 7.71814   6054.71
 7.7275   6034.64
 7.73686   6018.07
 7.74622   6007.62
 7.75558   5953.51
 7.76494   5941.77
 7.7743   5927.79
 7.78366   5896.98
 7.79302   5876.69
 7.80238   5854.54
 7.81174   5842.9
 7.8211   5816.87
 7.83046   5757.18
 7.83982   5770.88
 7.84918   5761.56
 7.85854   5749.67
 7.8679   5709.92
 7.87726   5720.86
 7.88662   5685.24
 7.89598   5674.62
 7.90534   5653.41
 7.9147   5638.59
 7.92406   5648.18
 7.93342   5613.3
 7.94278   5599.4
 7.95214   5609.37
 7.9615   5602.77
 7.97086   5582.94
 7.98022   5552.42
 7.98958   5554.81
 7.99894   5572.88
 8.0083   5542.06
 8.01766   5519.4
 8.02702   5530.9
 8.03638   5542.12
 8.04574   5524.11
 8.0551   5514.94
 8.06446   5546.46
 8.07382   5596.75
 8.08318   5625.7
 8.09254   5669.27
 8.1019   5768.91
 8.11126   5831.31
 8.12062   5825.37
 8.12998   5842.89
 8.13934   5859.18
 8.1487   5892.16
 8.15806   5897.75
 8.16742   5944.68
 8.17678   6012.09
 8.18614   6103.42
 8.1955   6225.46
 8.20486   6373.35
 8.21422   6553.02
 8.22358   6749.45
 8.23294   6921.13
 8.2423   7049.77
 8.25166   7171.32
 8.26102   7228.37
 8.27038   7254.27
 8.27974   7253.32
 8.2891   7209.38
 8.29846   7092.15
 8.30782   6902.26
 8.31718   6657.13
 8.32654   6392.28
 8.3359   6170.26
 8.34526   5983.3
 8.35462   5855.45
 8.36398   5793.55
 8.37334   5919.98
 8.3827   6233.8
 8.39206   6343.19
 8.40142   6878.38
 8.41078   7096.26
 8.42014   6855.43
 8.4295   6310.92
 8.43886   6184.24
 8.44822   5942.8
 8.45758   5894.47
 8.46694   5912.94
 8.4763   5972.51
 8.48566   6046.98
 8.49502   6147.32
 8.50438   6231.52
 8.51374   6321.28
 8.5231   6415.46
 8.53246   6516.35
 8.54182   6590.35
 8.55118   6671.78
 8.56054   6704.46
 8.5699   6721.3
 8.57926   6716.06
 8.58862   6663.44
 8.59798   6576.2
 8.60734   6469.47
 8.6167   6347.84
 8.62606   6213.42
 8.63542   6094.43
 8.64478   5988.73
 8.65414   5869.13
 8.6635   5784.09
 8.67286   5711.36
 8.68222   5645.51
 8.69158   5609.77
 8.70094   5552.72
 8.7103   5532.1
 8.71966   5495.29
 8.72902   5464.98
 8.73838   5445.06
 8.74774   5428.2
 8.7571   5412.52
 8.76646   5386.77
 8.77582   5353.57
 8.78518   5342.35
 8.79454   5322.03
 8.8039   5285.21
 8.81326   5276.55
 8.82262   5235.52
 8.83198   5225.96
 8.84134   5184.35
 8.8507   5145.37
 8.86006   5107.51
 8.86942   5062.4
 8.87878   5039.15
 8.88814   5012.98
 8.8975   4996.92
 8.90686   4978.03
 8.91622   4986.44
 8.92558   4970.83
 8.93494   4963.78
 8.9443   4959.29
 8.95366   4964.57
 8.96302   4956.14
 8.97238   4953.84
 8.98174   4968.68
 8.9911   4968.71
 9.00046   4954.73
 9.00982   4942.51
 9.01918   4941.27
 9.02854   4933.18
 9.0379   4922.99
 9.04726   4911.25
 9.05662   4896.69
 9.06598   4906.63
 9.07534   4901.71
 9.0847   4895
 9.09406   4914.64
 9.10342   4923.68
 9.11278   4924.59
 9.12214   4937.49
 9.1315   4962.87
 9.14086   4969.71
 9.15022   4980.18
 9.15958   4993.24
 9.16894   5018.36
 9.1783   5051.19
 9.18766   5065.75
 9.19702   5094.46
 9.20638   5135.02
 9.21574   5178.88
 9.2251   5212.19
 9.23446   5262.94
 9.24382   5316.35
 9.25318   5371.72
 9.26254   5428.47
 9.2719   5485.98
 9.28126   5554.67
 9.29062   5596.88
 9.29998   5631.49
 9.30934   5657.29
 9.3187   5686.06
 9.32806   5707.14
 9.33742   5713.33
 9.34678   5697.5
 9.35614   5659.32
 9.3655   5626.34
 9.37486   5563.01
 9.38422   5510.7
 9.39358   5444.37
 9.40294   5383.69
 9.4123   5324.84
 9.42166   5287.57
 9.43102   5249.43
 9.44038   5220.11
 9.44974   5194.89
 9.4591   5178.49
 9.46846   5184.75
 9.47782   5187.58
 9.48718   5198.88
 9.49654   5197.65
 9.5059   5217.21
 9.51526   5210.36
 9.52462   5212.75
 9.53398   5207.09
 9.54334   5214.91
 9.5527   5234.93
 9.56206   5249.79
 9.57142   5260.1
 9.58078   5283.38
 9.59014   5309.92
 9.5995   5321.48
 9.60886   5330.72
 9.61822   5342.44
 9.62758   5336.61
 9.63694   5334.52
 9.6463   5317.58
 9.65566   5315.04
 9.66502   5326.45
 9.67438   5320.51
 9.68374   5314.88
 9.6931   5300.23
 9.70246   5283.89
 9.71182   5232.69
 9.72118   5191.32
 9.73054   5147.06
 9.7399   5119.46
 9.74926   5088.72
 9.75862   5088.48
 9.76798   5083.47
 9.77734   5107.94
 9.7867   5124.18
 9.79606   5170.68
 9.80542   5251.21
 9.81478   5398.53
 9.82414   5659.18
 9.8335   6338.8
 9.84286   7499.6
 9.85222   8947.7
 9.86158   10931.6
 9.87094   10388.3
 9.8803   8439.14
 9.88966   6851.15
 9.89902   6157.58
 9.90838   5699.1
 9.91774   5533.39
 9.9271   5466.01
 9.93646   5433.72
 9.94582   5406.99
 9.95518   5405.07
 9.96454   5397.06
 9.9739   5397.94
 9.98326   5390.02
 9.99262   5386.25
 10.002   5385.75
 10.0113   5356.04
 10.0207   5341.24
 10.0301   5300.75
 10.0394   5267.22
 10.0488   5257.78
 10.0581   5237.98
 10.0675   5214.55
 10.0769   5194.52
 10.0862   5204.84
 10.0956   5187.38
 10.1049   5187.86
 10.1143   5178.87
 10.1237   5193.17
 10.133   5189.53
 10.1424   5214.5
 10.1517   5227.4
 10.1611   5250.61
 10.1705   5287.68
 10.1798   5302.45
 10.1892   5330.88
 10.1985   5375.65
 10.2079   5410.15
 10.2173   5442.44
 10.2266   5461.17
 10.236   5493.06
 10.2453   5503.83
 10.2547   5535.21
 10.2641   5627.36
 10.2734   5769.14
 10.2828   5621.78
 10.2921   5861.08
 10.3015   5954.19
 10.3109   5869.23
 10.3202   5708.09
 10.3296   5866.9
 10.3389   5438.06
 10.3483   5286.94
 10.3577   5212.87
 10.367   5166.6
 10.3764   5154.31
 10.3857   5165.97
 10.3951   5154.65
 10.4045   5159.74
 10.4138   5175.57
 10.4232   5181.23
 10.4325   5183.56
 10.4419   5206.5
 10.4513   5229.62
 10.4606   5246.99
 10.47   5274.1
 10.4793   5291.05
 10.4887   5291.51
 10.4981   5309.6
 10.5074   5308.69
 10.5168   5290.76
 10.5261   5273.82
 10.5355   5259.54
 10.5449   5237.59
 10.5542   5225.6
 10.5636   5190.36
 10.5729   5166.24
 10.5823   5137.46
 10.5917   5108.57
 10.601   5092.22
 10.6104   5081.36
 10.6197   5060.01
 10.6291   5056.79
 10.6385   5039.96
 10.6478   5024.96
 10.6572   5021.78
 10.6665   5027.73
 10.6759   5022.98
 10.6853   5022.07
 10.6946   5017.64
 10.704   5024.26
 10.7133   5048.26
 10.7227   5060.72
 10.7321   5066.56
 10.7414   5081.71
 10.7508   5106.04
 10.7601   5108.6
 10.7695   5115.83
 10.7789   5123.81
 10.7882   5110.96
 10.7976   5102.86
 10.8069   5091.4
 10.8163   5086.9
 10.8257   5078.45
 10.835   5073.47
 10.8444   5057.19
 10.8537   5046.8
 10.8631   5031.26
 10.8725   5014.33
 10.8818   4980.97
 10.8912   4970.24
 10.9005   4943.91
 10.9099   4928.56
 10.9193   4897.97
 10.9286   4886.01
 10.938   4876.11
 10.9473   4856.22
 10.9567   4825.75
 10.9661   4823.9
 10.9754   4817
 10.9848   4809.57
 10.9941   4792.33
 11.0035   4796.87
 11.0129   4795.04
 11.0222   4780.19
 11.0316   4789.5
 11.0409   4799.27
 11.0503   4804.26
 11.0597   4815.96
 11.069   4819.83
 11.0784   4828.35
 11.0877   4860.31
 11.0971   4881.21
 11.1065   4904.43
 11.1158   4939.13
 11.1252   4956.11
 11.1345   4987.43
 11.1439   4993.6
 11.1533   4985.61
 11.1626   4972.3
 11.172   4960.35
 11.1813   4948.43
 11.1907   4917.97
 11.2001   4882.39
 11.2094   4879.97
 11.2188   4860.97
 11.2281   4859.56
 11.2375   4819.16
 11.2469   4802.65
 11.2562   4781.68
 11.2656   4753.45
 11.2749   4716.15
 11.2843   4702.93
 11.2937   4692.94
 11.303   4671.87
 11.3124   4646.9
 11.3217   4629.6
 11.3311   4627.41
 11.3405   4611.18
 11.3498   4594.85
 11.3592   4572.29
 11.3685   4560.77
 11.3779   4560.28
 11.3873   4542.19
 11.3966   4527.57
 11.406   4529.32
 11.4153   4524.81
 11.4247   4513.43
 11.4341   4509.47
 11.4434   4505.59
 11.4528   4501.78
 11.4621   4493.8
 11.4715   4480.87
 11.4809   4476.23
 11.4902   4475.46
 11.4996   4473.85
 11.5089   4457.47
 11.5183   4459.58
 11.5277   4451.42
 11.537   4446.85
 11.5464   4428.5
 11.5557   4416.7
 11.5651   4426.92
 11.5745   4417.43
 11.5838   4400.48
 11.5932   4402.36
 11.6025   4401.72
 11.6119   4397.52
 11.6213   4395.56
 11.6306   4391.14
 11.64   4388.83
 11.6493   4382.82
 11.6587   4373.08
 11.6681   4361.87
 11.6774   4343.19
 11.6868   4348.05
 11.6961   4355.64
 11.7055   4341.7
 11.7149   4332.18
 11.7242   4349.71
 11.7336   4345.19
 11.7429   4340.81
 11.7523   4328.4
 11.7617   4339.04
 11.771   4335.64
 11.7804   4338.69
 11.7897   4336.65
 11.7991   4340.67
 11.8085   4342.12
 11.8178   4361.95
 11.8272   4366.41
 11.8365   4370.04
 11.8459   4383.87
 11.8553   4405.17
 11.8646   4441.69
 11.874   4491.83
 11.8833   4527.17
 11.8927   4578.78
 11.9021   4638.48
 11.9114   4639.03
 11.9208   4608.43
 11.9301   4592.31
 11.9395   4576.72
 11.9489   4538.64
 11.9582   4538.85
 11.9676   4550.39
 11.9769   4555.29
 11.9863   4543.8
 11.9957   4548.03
 12.005   4547.57
 12.0144   4534.38
 12.0237   4509.85
 12.0331   4509.5
 12.0425   4489.96
 12.0518   4473.97
 12.0612   4464.48
 12.0705   4442.41
 12.0799   4432.41
 12.0893   4422.65
 12.0986   4412.09
 12.108   4385.67
 12.1173   4361.49
 12.1267   4348.97
 12.1361   4318.55
 12.1454   4294.14
 12.1548   4258.75
 12.1641   4237.29
 12.1735   4212.83
 12.1829   4180.02
 12.1922   4168.53
 12.2016   4148.05
 12.2109   4150.03
 12.2203   4126.62
 12.2297   4114.75
 12.239   4101.11
 12.2484   4099.94
 12.2577   4099.24
 12.2671   4097.23
 12.2765   4090.22
 12.2858   4086.02
 12.2952   4084.01
 12.3045   4083.8
 12.3139   4092.53
 12.3233   4090.02
 12.3326   4092.37
 12.342   4096.34
 12.3513   4087.95
 12.3607   4098.61
 12.3701   4106.68
 12.3794   4113.84
 12.3888   4118.05
 12.3981   4127.79
 12.4075   4138.69
 12.4169   4134.05
 12.4262   4137.95
 12.4356   4138.33
 12.4449   4136.83
 12.4543   4138.83
 12.4637   4132.11
 12.473   4153.27
 12.4824   4148.99
 12.4917   4146.09
 12.5011   4136.47
 12.5105   4135.01
 12.5198   4126.17
 12.5292   4125.28
 12.5385   4113.63
 12.5479   4116.76
 12.5573   4110.91
 12.5666   4118.33
 12.576   4127.72
 12.5853   4129.04
 12.5947   4147.98
 12.6041   4153.91
 12.6134   4166.52
 12.6228   4176.33
 12.6321   4191.31
 12.6415   4193.29
 12.6509   4207.33
 12.6602   4214.18
 12.6696   4221.59
 12.6789   4229.06
 12.6883   4229.76
 12.6977   4230.42