File: docs/GuiliangJun25_tutorial_output/integrals/MA2b-00003_arcsmasked.chi
MA2b-00003.tif Azm= 0.00
2-Theta Angle (Degrees)
Intensity
       2500
 1.00702   7929.54
 1.01638   7911.09
 1.02574   7799.84
 1.0351   7776.9
 1.04446   7710.6
 1.05382   7681.65
 1.06318   7644.84
 1.07254   7552.67
 1.0819   7542.99
 1.09126   7501.08
 1.10062   7498.97
 1.10998   7427.59
 1.11934   7420.41
 1.1287   7380.21
 1.13806   7352.96
 1.14742   7270.26
 1.15678   7314.11
 1.16614   7254.35
 1.1755   7231.23
 1.18486   7222.41
 1.19422   7212.32
 1.20358   7180.11
 1.21294   7165.98
 1.2223   7182.35
 1.23166   7170.53
 1.24102   7136.39
 1.25038   7147.47
 1.25974   7134.44
 1.2691   7133.92
 1.27846   7117.24
 1.28782   7147.64
 1.29718   7112.2
 1.30654   7158.66
 1.3159   7152.27
 1.32526   7190.18
 1.33462   7185.33
 1.34398   7165.23
 1.35334   7179.74
 1.3627   7221.53
 1.37206   7230.12
 1.38142   7234.16
 1.39078   7274.15
 1.40014   7296.58
 1.4095   7340.9
 1.41886   7336.19
 1.42822   7374.38
 1.43758   7448.44
 1.44694   7480.55
 1.4563   7517.14
 1.46566   7602.46
 1.47502   7651.11
 1.48438   7717.49
 1.49374   7737.36
 1.5031   7759.56
 1.51246   7799.96
 1.52182   7826.81
 1.53118   7826.42
 1.54054   7810.52
 1.5499   7812.59
 1.55926   7765.03
 1.56862   7775.86
 1.57798   7751.8
 1.58734   7762.52
 1.5967   7743.1
 1.60606   7725.49
 1.61542   7757.47
 1.62478   7721.82
 1.63414   7732.16
 1.6435   7756.36
 1.65286   7729.34
 1.66222   7738.14
 1.67158   7733.93
 1.68094   7749.98
 1.6903   7719.1
 1.69966   7732.61
 1.70902   7737.56
 1.71838   7749.33
 1.72774   7774.04
 1.7371   7745.01
 1.74646   7776.89
 1.75582   7794.05
 1.76518   7806
 1.77454   7814.87
 1.7839   7856.08
 1.79326   7874.89
 1.80262   7885.6
 1.81198   7930.76
 1.82134   7976.44
 1.8307   7976.51
 1.84006   8037.74
 1.84942   8055.66
 1.85878   8117.47
 1.86814   8142.22
 1.8775   8178.76
 1.88686   8239.25
 1.89622   8265.71
 1.90558   8321.71
 1.91494   8368.59
 1.9243   8420.34
 1.93366   8463.03
 1.94302   8500.43
 1.95238   8534.18
 1.96174   8655.94
 1.9711   8781.38
 1.98046   8763.7
 1.98982   8797.57
 1.99918   8820.28
 2.00854   8866.78
 2.0179   8908.75
 2.02726   8973.63
 2.03662   9016.26
 2.04598   9068.71
 2.05534   9132.75
 2.0647   9210.08
 2.07406   9285.54
 2.08342   9438.66
 2.09278   9656.92
 2.10214   10002
 2.1115   10619.6
 2.12086   11868.8
 2.13022   14313.6
 2.13958   17977.3
 2.14894   21994.6
 2.1583   24423
 2.16766   25236.4
 2.17702   24511.6
 2.18638   22772.5
 2.19574   20244.9
 2.2051   17695.8
 2.21446   15771.4
 2.22382   14492.7
 2.23318   13702.9
 2.24254   13086.7
 2.2519   12368.9
 2.26126   11630.1
 2.27062   11064.8
 2.27998   10762.8
 2.28934   10584.4
 2.2987   10528.3
 2.30806   10545.5
 2.31742   10555.2
 2.32678   10598.1
 2.33614   10670.3
 2.3455   10703.9
 2.35486   10718.7
 2.36422   10798.6
 2.37358   10863.6
 2.38294   10909.2
 2.3923   10974.9
 2.40166   11043.8
 2.41102   11100
 2.42038   11192.4
 2.42974   11263.6
 2.4391   11338.8
 2.44846   11421.4
 2.45782   11497.5
 2.46718   11557.1
 2.47654   11617
 2.4859   11686.1
 2.49526   11780.9
 2.50462   11862.4
 2.51398   11941.1
 2.52334   11995.7
 2.5327   12069.5
 2.54206   12148.3
 2.55142   12199.6
 2.56078   12283.7
 2.57014   12330.1
 2.5795   12373.9
 2.58886   12441.5
 2.59822   12502.2
 2.60758   12554.8
 2.61694   12589.7
 2.6263   12639.2
 2.63566   12678.6
 2.64502   12724.5
 2.65438   12766.3
 2.66374   12796.5
 2.6731   12838.3
 2.68246   12841.7
 2.69182   12861.4
 2.70118   12901.7
 2.71054   12925.4
 2.7199   12906.5
 2.72926   12941.2
 2.73862   12940.3
 2.74798   12888.9
 2.75734   12880.3
 2.7667   12882.3
 2.77606   12857.8
 2.78542   12849.5
 2.79478   12854.3
 2.80414   12821.2
 2.8135   12794.8
 2.82286   12752.9
 2.83222   12716.9
 2.84158   12718
 2.85094   12689.3
 2.8603   12641.1
 2.86966   12606.4
 2.87902   12589.2
 2.88838   12531.3
 2.89774   12500.9
 2.9071   12459.5
 2.91646   12429.5
 2.92582   12401.1
 2.93518   12346.8
 2.94454   12326.8
 2.9539   12267.7
 2.96326   12215.6
 2.97262   12187
 2.98198   12128.4
 2.99134   12069.4
 3.0007   12034.6
 3.01006   11971.1
 3.01942   11942.6
 3.02878   11911.3
 3.03814   11830.3
 3.0475   11762.7
 3.05686   11668.6
 3.06622   11632.6
 3.07558   11563.1
 3.08494   11538.8
 3.0943   11464
 3.10366   11435.2
 3.11302   11414
 3.12238   11357
 3.13174   11322
 3.1411   11267.8
 3.15046   11242.4
 3.15982   11209.7
 3.16918   11189.5
 3.17854   11120
 3.1879   11098
 3.19726   11091.7
 3.20662   11056.7
 3.21598   10992.6
 3.22534   10989.2
 3.2347   10959.3
 3.24406   10908
 3.25342   10913.3
 3.26278   10889.5
 3.27214   10859.4
 3.2815   10832.1
 3.29086   10812.3
 3.30022   10829
 3.30958   10793.7
 3.31894   10797.9
 3.3283   10791.9
 3.33766   10782.7
 3.34702   10763.6
 3.35638   10737.8
 3.36574   10778.6
 3.3751   10752.9
 3.38446   10733.1
 3.39382   10761.4
 3.40318   10756.9
 3.41254   10783.6
 3.4219   10786
 3.43126   10800.2
 3.44062   10803.6
 3.44998   10809
 3.45934   10819.9
 3.4687   10826
 3.47806   10846.8
 3.48742   10820.7
 3.49678   10796
 3.50614   10835.4
 3.5155   10866
 3.52486   10820.4
 3.53422   10809.4
 3.54358   10855.4
 3.55294   10864.9
 3.5623   10839.2
 3.57166   10841.5
 3.58102   10870.8
 3.59038   10879.9
 3.59974   10832.5
 3.6091   10913.5
 3.61846   10950.2
 3.62782   10922.1
 3.63718   10917.9
 3.64654   11013.6
 3.6559   11079.9
 3.66526   11033.4
 3.67462   11045.5
 3.68398   11247.5
 3.69334   11268.4
 3.7027   11258.5
 3.71206   11311.2
 3.72142   11484.1
 3.73078   11378.7
 3.74014   11443.3
 3.7495   11496.7
 3.75886   11552.1
 3.76822   11710.3
 3.77758   11640.8
 3.78694   11782.7
 3.7963   12040.9
 3.80566   11962
 3.81502   11985.2
 3.82438   12501.8
 3.83374   12539
 3.8431   12729.2
 3.85246   13307.3
 3.86182   13726
 3.87118   14086.7
 3.88054   14760.2
 3.8899   15406.1
 3.89926   16601.5
 3.90862   18154.5
 3.91798   22242.1
 3.92734   31255.5
 3.9367   51739.8
 3.94606   72764.1
 3.95542   78706.6
 3.96478   94290.4
 3.97414   122387
 3.9835   101287
 3.99286   78745.2
 4.00222   46586.8
 4.01158   29481.8
 4.02094   19858.5
 4.0303   17256.7
 4.03966   15467.1
 4.04902   13791.7
 4.05838   13051.1
 4.06774   12644.7
 4.0771   12240
 4.08646   12167.3
 4.09582   11713.2
 4.10518   11501.5
 4.11454   11438.5
 4.1239   10989.4
 4.13326   10686.7
 4.14262   10740.5
 4.15198   10460.3
 4.16134   10219
 4.1707   10068.8
 4.18006   10019.8
 4.18942   9801.84
 4.19878   9598.48
 4.20814   9480.89
 4.2175   9471.77
 4.22686   9186.2
 4.23622   9023.63
 4.24558   9041.05
 4.25494   8952.2
 4.2643   8959.02
 4.27366   9080.79
 4.28302   9121.32
 4.29238   9333.3
 4.30174   9439.72
 4.3111   9410.94
 4.32046   9456.79
 4.32982   9359.81
 4.33918   9244.33
 4.34854   9273.56
 4.3579   9203.16
 4.36726   9017.87
 4.37662   8835.53
 4.38598   8648.8
 4.39534   8459.05
 4.4047   8305.53
 4.41406   8098.27
 4.42342   7991.36
 4.43278   7944.2
 4.44214   7794.1
 4.4515   7699.73
 4.46086   7712.51
 4.47022   7674.47
 4.47958   7604.04
 4.48894   7543.38
 4.4983   7492.64
 4.50766   7387
 4.51702   7234.7
 4.52638   7180.01
 4.53574   7115.41
 4.5451   7034.68
 4.55446   6995.82
 4.56382   6963.09
 4.57318   6946.51
 4.58254   6908.7
 4.5919   6863.93
 4.60126   6835.21
 4.61062   6821.54
 4.61998   6773.14
 4.62934   6729.97
 4.6387   6726.19
 4.64806   6681.02
 4.65742   6628.87
 4.66678   6655.74
 4.67614   6617.72
 4.6855   6600.29
 4.69486   6624.46
 4.70422   6635.81
 4.71358   6709.16
 4.72294   6818.76
 4.7323   6921.77
 4.74166   7027.21
 4.75102   7172
 4.76038   7319.73
 4.76974   7542.66
 4.7791   7882.35
 4.78846   8324.43
 4.79782   8783.2
 4.80718   9162.8
 4.81654   9301.15
 4.8259   9238.19
 4.83526   8989.56
 4.84462   8579.86
 4.85398   8119.71
 4.86334   7643.36
 4.8727   7337.05
 4.88206   7215.58
 4.89142   7280.42
 4.90078   7467.54
 4.91014   7734.09
 4.9195   7978.08
 4.92886   8145.29
 4.93822   8281.49
 4.94758   8416.47
 4.95694   8522.38
 4.9663   8653.86
 4.97566   8766.68
 4.98502   8825.88
 4.99438   8745.05
 5.00374   8514
 5.0131   8140.61
 5.02246   7722.42
 5.03182   7309.18
 5.04118   6989.95
 5.05054   6763.15
 5.0599   6634.26
 5.06926   6605.12
 5.07862   6700.51
 5.08798   6904.54
 5.09734   7193.03
 5.1067   7911.09
 5.11606   7764.81
 5.12542   8779.24
 5.13478   11265.5
 5.14414   13051.9
 5.1535   12207.2
 5.16286   9664.35
 5.17222   7699.64
 5.18158   6695.93
 5.19094   6718.54
 5.2003   6522.07
 5.20966   6325.71
 5.21902   6246.59
 5.22838   6132.08
 5.23774   6070.97
 5.2471   6020.29
 5.25646   5978.95
 5.26582   5961.99
 5.27518   5933.59
 5.28454   5909.68
 5.2939   5921.84
 5.30326   5911.76
 5.31262   5900.86
 5.32198   5881.15
 5.33134   5876.77
 5.3407   5887.63
 5.35006   5859.67
 5.35942   5849.15
 5.36878   5863.89
 5.37814   5900.55
 5.3875   5870.39
 5.39686   5876.62
 5.40622   5919.9
 5.41558   5952.11
 5.42494   5933.1
 5.4343   5990.42
 5.44366   6050.69
 5.45302   6085.07
 5.46238   6152.13
 5.47174   6267.93
 5.4811   6428.08
 5.49046   6631.83
 5.49982   6931.84
 5.50918   7427.83
 5.51854   8172.97
 5.5279   9168.21
 5.53726   10481.8
 5.54662   11910.5
 5.55598   13071.9
 5.56534   13533.9
 5.5747   13306.9
 5.58406   12640.4
 5.59342   11748.8
 5.60278   11208.2
 5.61214   9925.57
 5.6215   9072.54
 5.63086   8462.73
 5.64022   7961
 5.64958   7543.4
 5.65894   7194.67
 5.6683   6895.33
 5.67766   6628.71
 5.68702   6451.63
 5.69638   6346.99
 5.70574   6229.77
 5.7151   6134.67
 5.72446   6101.03
 5.73382   6093.21
 5.74318   6082.29
 5.75254   6068.59
 5.7619   6090.08
 5.77126   6092.39
 5.78062   6025.7
 5.78998   5992.39
 5.79934   6004.08
 5.8087   6008.93
 5.81806   5970.91
 5.82742   5991.16
 5.83678   6025.11
 5.84614   6033.94
 5.8555   6055.47
 5.86486   6133.38
 5.87422   6227.49
 5.88358   6321.4
 5.89294   6452.86
 5.9023   6648.66
 5.91166   7078.16
 5.92102   7577.34
 5.93038   8318.07
 5.93974   9068.98
 5.9491   9097.13
 5.95846   8614.24
 5.96782   8241.69
 5.97718   8015.2
 5.98654   7822.66
 5.9959   7644.74
 6.00526   7390.16
 6.01462   7185.89
 6.02398   6969.54
 6.03334   6719.05
 6.0427   6530.13
 6.05206   6394.58
 6.06142   6239.74
 6.07078   6120.09
 6.08014   6054.73
 6.0895   6011.96
 6.09886   5974.1
 6.10822   5918.01
 6.11758   5912.12
 6.12694   5896.45
 6.1363   5879.89
 6.14566   5840.94
 6.15502   5857.07
 6.16438   5865.87
 6.17374   5854.19
 6.1831   5837.4
 6.19246   5846.21
 6.20182   5885.33
 6.21118   5856.29
 6.22054   5851.84
 6.2299   5873.79
 6.23926   5879.73
 6.24862   5863.76
 6.25798   5893.37
 6.26734   5904.57
 6.2767   5904.78
 6.28606   5889.87
 6.29542   5904.51
 6.30478   5929.37
 6.31414   5930.44
 6.3235   5940.29
 6.33286   5949.52
 6.34222   5965.15
 6.35158   5962.66
 6.36094   5965.99
 6.3703   5966.1
 6.37966   5990.14
 6.38902   5990.95
 6.39838   5993.82
 6.40774   6026.99
 6.4171   6072.24
 6.42646   6068.07
 6.43582   6101.52
 6.44518   6147.35
 6.45454   6153.72
 6.4639   6170.9
 6.47326   6197.93
 6.48262   6230.11
 6.49198   6265.02
 6.50134   6246.65
 6.5107   6275.09
 6.52006   6310.86
 6.52942   6307.26
 6.53878   6353.19
 6.54814   6384.24
 6.5575   6426.2
 6.56686   6435.9
 6.57622   6454.81
 6.58558   6509.79
 6.59494   6590.01
 6.6043   6669.01
 6.61366   6673.18
 6.62302   6741.78
 6.63238   6842.64
 6.64174   6850.76
 6.6511   6912.03
 6.66046   7020.3
 6.66982   7016.8
 6.67918   7072.92
 6.68854   7082.39
 6.6979   7099.15
 6.70726   7172.63
 6.71662   7228.7
 6.72598   7239.77
 6.73534   7371.88
 6.7447   7413.24
 6.75406   7465.82
 6.76342   7611.06
 6.77278   7790.95
 6.78214   7866.07
 6.7915   8019.94
 6.80086   8160.02
 6.81022   8361.4
 6.81958   8692.47
 6.82894   9218.59
 6.8383   10252.2
 6.84766   15784.2
 6.85702   18704.9
 6.86638   33114.1
 6.87574   40850.1
 6.8851   35117.8
 6.89446   24684.7
 6.90382   14972.3
 6.91318   11456.3
 6.92254   10363.8
 6.9319   10010.9
 6.94126   9704.78
 6.95062   9759.47
 6.95998   9608.96
 6.96934   9311.7
 6.9787   9387
 6.98806   9304.86
 6.99742   9109.88
 7.00678   9074.5
 7.01614   8892.6
 7.0255   8741.04
 7.03486   8608.15
 7.04422   8359.82
 7.05358   8223.22
 7.06294   8184.11
 7.0723   7970.04
 7.08166   7723.22
 7.09102   7562.15
 7.10038   7472.16
 7.10974   7337.83
 7.1191   7283.71
 7.12846   7218.5
 7.13782   7181.01
 7.14718   7135.94
 7.15654   7088.06
 7.1659   7057.05
 7.17526   7063.75
 7.18462   6992.98
 7.19398   6982.26
 7.20334   6932.93
 7.2127   6908.52
 7.22206   6878.58
 7.23142   6848.57
 7.24078   6851.03
 7.25014   6879.81
 7.2595   6841.23
 7.26886   6841.94
 7.27822   6846.1
 7.28758   6849.74
 7.29694   6812.87
 7.3063   6807.77
 7.31566   6836.25
 7.32502   6857.66
 7.33438   6868.58
 7.34374   6897.7
 7.3531   6921.05
 7.36246   6929.47
 7.37182   6951.97
 7.38118   6947.52
 7.39054   6957.36
 7.3999   6962.3
 7.40926   6969.89
 7.41862   6994.57
 7.42798   7028.28
 7.43734   7066.95
 7.4467   7099.01
 7.45606   7143.84
 7.46542   7182.66
 7.47478   7234.73
 7.48414   7266.62
 7.4935   7298.96
 7.50286   7336.21
 7.51222   7389.09
 7.52158   7411.45
 7.53094   7453.95
 7.5403   7516.81
 7.54966   7543.84
 7.55902   7560.72
 7.56838   7566.69
 7.57774   7559.65
 7.5871   7512.41
 7.59646   7474.82
 7.60582   7345.53
 7.61518   7230.36
 7.62454   7052.01
 7.6339   6879.68
 7.64326   6740.66
 7.65262   6631.8
 7.66198   6546.29
 7.67134   6505.14
 7.6807   6469.23
 7.69006   6432.15
 7.69942   6406.56
 7.70878   6384.25
 7.71814   6352.89
 7.7275   6364.19
 7.73686   6346.87
 7.74622   6350.81
 7.75558   6335.85
 7.76494   6328.16
 7.7743   6368.86
 7.78366   6394.95
 7.79302   6398.52
 7.80238   6415.16
 7.81174   6424.7
 7.8211   6456.68
 7.83046   6491.95
 7.83982   6506.89
 7.84918   6508.34
 7.85854   6603.96
 7.8679   6549.44
 7.87726   6592.8
 7.88662   6706.62
 7.89598   6674.39
 7.90534   6853.22
 7.9147   7763.18
 7.92406   8723.24
 7.93342   11848.9
 7.94278   16246.9
 7.95214   17365.3
 7.9615   13464
 7.97086   8726.32
 7.98022   7336.84
 7.98958   6926.29
 7.99894   6602.88
 8.0083   6476.65
 8.01766   6471.98
 8.02702   6349.68
 8.03638   6320.89
 8.04574   6261.87
 8.0551   6208.07
 8.06446   6194.3
 8.07382   6230.68
 8.08318   6267.01
 8.09254   6313.07
 8.1019   6371.49
 8.11126   6407.86
 8.12062   6456.85
 8.12998   6461.93
 8.13934   6441.32
 8.1487   6490.95
 8.15806   6489.07
 8.16742   6522.94
 8.17678   6601.51
 8.18614   6698.94
 8.1955   6813.91
 8.20486   6960.29
 8.21422   7133.59
 8.22358   7287.4
 8.23294   7443.7
 8.2423   7525.76
 8.25166   7549.88
 8.26102   7507.43
 8.27038   7423.42
 8.27974   7305.83
 8.2891   7155.85
 8.29846   6997.25
 8.30782   6764.69
 8.31718   6525.73
 8.32654   6301.92
 8.3359   6104.33
 8.34526   5950.58
 8.35462   5886.22
 8.36398   5880.37
 8.37334   6091.7
 8.3827   6729.52
 8.39206   7854.4
 8.40142   9284.66
 8.41078   9758.36
 8.42014   8694.35
 8.4295   7230.61
 8.43886   6510.65
 8.44822   6168.52
 8.45758   6114.92
 8.46694   6135.04
 8.4763   6189.51
 8.48566   6257.37
 8.49502   6334.62
 8.50438   6384.12
 8.51374   6440.66
 8.5231   6489.91
 8.53246   6530.7
 8.54182   6583.11
 8.55118   6601.44
 8.56054   6594.15
 8.5699   6561.32
 8.57926   6522.12
 8.58862   6430.58
 8.59798   6350.81
 8.60734   6251.51
 8.6167   6166.53
 8.62606   6068.71
 8.63542   5964.51
 8.64478   5888.09
 8.65414   5819.55
 8.6635   5761.16
 8.67286   5718.55
 8.68222   5685.53
 8.69158   5660.96
 8.70094   5650.19
 8.7103   5626.55
 8.71966   5609.85
 8.72902   5604.21
 8.73838   5585.19
 8.74774   5577.44
 8.7571   5546
 8.76646   5544.12
 8.77582   5518.47
 8.78518   5505.4
 8.79454   5489.32
 8.8039   5460.36
 8.81326   5449.65
 8.82262   5446.31
 8.83198   5498.22
 8.84134   5646.38
 8.8507   6202.23
 8.86006   7014.16
 8.86942   7875.56
 8.87878   6322.69
 8.88814   5926.81
 8.8975   5470.66
 8.90686   5202.66
 8.91622   5120.87
 8.92558   5118.36
 8.93494   5079.2
 8.9443   5079.16
 8.95366   5071.91
 8.96302   5069.31
 8.97238   5062.12
 8.98174   5063.2
 8.9911   5051.65
 9.00046   5037.95
 9.00982   5040.91
 9.01918   5031.33
 9.02854   5005.35
 9.0379   4992.07
 9.04726   4974.98
 9.05662   4963.46
 9.06598   4975.85
 9.07534   4973.77
 9.0847   4967.23
 9.09406   4970.29
 9.10342   4971.03
 9.11278   4968.55
 9.12214   4981.79
 9.1315   5004.62
 9.14086   5010.66
 9.15022   5019.97
 9.15958   5024.1
 9.16894   5048.72
 9.1783   5076.42
 9.18766   5094.15
 9.19702   5121.92
 9.20638   5145.76
 9.21574   5216
 9.2251   5259.51
 9.23446   5302.06
 9.24382   5359.92
 9.25318   5433.24
 9.26254   5498.99
 9.2719   5568.45
 9.28126   5620.75
 9.29062   5671.03
 9.29998   5703.41
 9.30934   5716.54
 9.3187   5733.56
 9.32806   5738.75
 9.33742   5734.38
 9.34678   5727.73
 9.35614   5697.03
 9.3655   5662.76
 9.37486   5600.82
 9.38422   5550.03
 9.39358   5502.36
 9.40294   5435.78
 9.4123   5382.29
 9.42166   5345.79
 9.43102   5296.09
 9.44038   5284.55
 9.44974   5263.98
 9.4591   5245.16
 9.46846   5253.19
 9.47782   5274.53
 9.48718   5287.12
 9.49654   5291.47
 9.5059   5295.37
 9.51526   5297.21
 9.52462   5288.3
 9.53398   5293.22
 9.54334   5296.25
 9.5527   5305.55
 9.56206   5318.56
 9.57142   5331.64
 9.58078   5334.49
 9.59014   5355.95
 9.5995   5362.73
 9.60886   5377.46
 9.61822   5379.52
 9.62758   5380.51
 9.63694   5371.01
 9.6463   5335.74
 9.65566   5345.56
 9.66502   5351.47
 9.67438   5373.3
 9.68374   5406
 9.6931   5502.48
 9.70246   5958.29
 9.71182   5988.42
 9.72118   6082.89
 9.73054   5818.63
 9.7399   5555.42
 9.74926   5279.81
 9.75862   5201.18
 9.76798   5174.76
 9.77734   5185.96
 9.7867   5202.19
 9.79606   5252.19
 9.80542   5344.79
 9.81478   5498.83
 9.82414   5807.11
 9.8335   6586.4
 9.84286   7942.57
 9.85222   10001.7
 9.86158   11845.1
 9.87094   11304.2
 9.8803   9158.9
 9.88966   7159.31
 9.89902   6294.66
 9.90838   5808.95
 9.91774   5618.05
 9.9271   5546.31
 9.93646   5506.22
 9.94582   5471.64
 9.95518   5478.55
 9.96454   5456
 9.9739   5447.52
 9.98326   5434.83
 9.99262   5422.86
 10.002   5422.77
 10.0113   5392.4
 10.0207   5379.48
 10.0301   5334.19
 10.0394   5305.84
 10.0488   5287.1
 10.0581   5265.05
 10.0675   5240.93
 10.0769   5230.8
 10.0862   5213.91
 10.0956   5203.51
 10.1049   5205.74
 10.1143   5201.61
 10.1237   5205.13
 10.133   5212.39
 10.1424   5230.33
 10.1517   5246.02
 10.1611   5260
 10.1705   5277.21
 10.1798   5292.82
 10.1892   5297.61
 10.1985   5346.87
 10.2079   5372.95
 10.2173   5385.53
 10.2266   5401.45
 10.236   5422.03
 10.2453   5432.21
 10.2547   5474.08
 10.2641   5560.92
 10.2734   5719.13
 10.2828   5574.25
 10.2921   5837.21
 10.3015   5963.02
 10.3109   5886.31
 10.3202   5673.09
 10.3296   5881.8
 10.3389   5452.33
 10.3483   5315.36
 10.3577   5242.74
 10.367   5234.58
 10.3764   5213.35
 10.3857   5197.29
 10.3951   5209.1
 10.4045   5237.25
 10.4138   5229.11
 10.4232   5241.77
 10.4325   5250.8
 10.4419   5311.78
 10.4513   5317.26
 10.4606   5362.63
 10.47   5514.33
 10.4793   5708.47
 10.4887   5751.03
 10.4981   6073.47
 10.5074   6054.26
 10.5168   5984.23
 10.5261   5755.55
 10.5355   5503.32
 10.5449   5357.11
 10.5542   5318.91
 10.5636   5278.42
 10.5729   5216.74
 10.5823   5194.44
 10.5917   5204.03
 10.601   5167.77
 10.6104   5145.16
 10.6197   5125.37
 10.6291   5136.58
 10.6385   5115.64
 10.6478   5096.54
 10.6572   5100.99
 10.6665   5096.75
 10.6759   5071.78
 10.6853   5060.32
 10.6946   5074.05
 10.704   5076.63
 10.7133   5077.06
 10.7227   5090.6
 10.7321   5110.12
 10.7414   5122.56
 10.7508   5145.24
 10.7601   5139.17
 10.7695   5142.46
 10.7789   5131.03
 10.7882   5132.72
 10.7976   5119.08
 10.8069   5120.31
 10.8163   5100.28
 10.8257   5081.92
 10.835   5072.97
 10.8444   5064.99
 10.8537   5053.33
 10.8631   5057.19
 10.8725   5038.96
 10.8818   5005.67
 10.8912   4984.46
 10.9005   4967.49
 10.9099   4950.13
 10.9193   4917.66
 10.9286   4897.68
 10.938   4895.14
 10.9473   4861.03
 10.9567   4843.22
 10.9661   4836.17
 10.9754   4839.91
 10.9848   4822.27
 10.9941   4804.14
 11.0035   4799.38
 11.0129   4810.47
 11.0222   4818.67
 11.0316   4818.11
 11.0409   4821.74
 11.0503   4820.29
 11.0597   4852.58
 11.069   4847.58
 11.0784   4871.61
 11.0877   4892.73
 11.0971   4932.49
 11.1065   4958.22
 11.1158   4986.6
 11.1252   5025.02
 11.1345   5032
 11.1439   5029.71
 11.1533   5020.37
 11.1626   5006.63
 11.172   4990.46
 11.1813   4968.34
 11.1907   4938.37
 11.2001   4902.45
 11.2094   4981.86
 11.2188   5001.7
 11.2281   4888.1
 11.2375   4862.67
 11.2469   4845.62
 11.2562   4810.32
 11.2656   4785.2
 11.2749   4751.68
 11.2843   4749.91
 11.2937   4728.49
 11.303   4707.28
 11.3124   4691.95
 11.3217   4679.12
 11.3311   4662.35
 11.3405   4634.68
 11.3498   4616.34
 11.3592   4610.96
 11.3685   4601.15
 11.3779   4601.05
 11.3873   4571.27
 11.3966   4557.25
 11.406   4567.45
 11.4153   4554.19
 11.4247   4535.1
 11.4341   4530.56
 11.4434   4531.62
 11.4528   4526.52
 11.4621   4518.24
 11.4715   4514.42
 11.4809   4506.06
 11.4902   4506.99
 11.4996   4494.65
 11.5089   4477.84
 11.5183   4474.86
 11.5277   4482.3
 11.537   4464.58
 11.5464   4445.74
 11.5557   4443.27
 11.5651   4431.91
 11.5745   4427.51
 11.5838   4413.97
 11.5932   4424.83
 11.6025   4415.59
 11.6119   4417.48
 11.6213   4419.13
 11.6306   4405.8
 11.64   4402.41
 11.6493   4386.8
 11.6587   4386.41
 11.6681   4369.5
 11.6774   4371.82
 11.6868   4370.56
 11.6961   4355.5
 11.7055   4353.04
 11.7149   4352.3
 11.7242   4355.18
 11.7336   4357.38
 11.7429   4360.09
 11.7523   4352.79
 11.7617   4354.38
 11.771   4365.8
 11.7804   4354.37
 11.7897   4356.16
 11.7991   4360.49
 11.8085   4370.23
 11.8178   4376.52
 11.8272   4381.57
 11.8365   4383.17
 11.8459   4396.33
 11.8553   4418.8
 11.8646   4446.06
 11.874   4490.64
 11.8833   4540.49
 11.8927   4625.28
 11.9021   4721.49
 11.9114   4729.48
 11.9208   4647.08
 11.9301   4598.28
 11.9395   4578.7
 11.9489   4529.38
 11.9582   4520.97
 11.9676   4539.76
 11.9769   4542.69
 11.9863   4543.39
 11.9957   4547.23
 12.005   4549.69
 12.0144   4550.95
 12.0237   4533.53
 12.0331   4525.12
 12.0425   4517.67
 12.0518   4502.2
 12.0612   4494.33
 12.0705   4482.61
 12.0799   4477.52
 12.0893   4480.78
 12.0986   4458.02
 12.108   4444.35
 12.1173   4429.07
 12.1267   4393.01
 12.1361   4370.05
 12.1454   4341.64
 12.1548   4304.04
 12.1641   4265.05
 12.1735   4244.33
 12.1829   4210.48
 12.1922   4195.08
 12.2016   4184.15
 12.2109   4164.05
 12.2203   4152.73
 12.2297   4145.04
 12.239   4135.53
 12.2484   4128.34
 12.2577   4117.66
 12.2671   4110.3
 12.2765   4115.45
 12.2858   4101.68
 12.2952   4108.33
 12.3045   4106.2
 12.3139   4103.69
 12.3233   4106.35
 12.3326   4117.54
 12.342   4108.83
 12.3513   4126.14
 12.3607   4128.54
 12.3701   4136.19
 12.3794   4145.03
 12.3888   4151.64
 12.3981   4152.7
 12.4075   4157.32
 12.4169   4159.42
 12.4262   4159.7
 12.4356   4168.04
 12.4449   4171.09
 12.4543   4175.98
 12.4637   4178.86
 12.473   4184.92
 12.4824   4185.35
 12.4917   4181.98
 12.5011   4172.04
 12.5105   4178.48
 12.5198   4164.66
 12.5292   4167.05
 12.5385   4176.52
 12.5479   4187.76
 12.5573   4214.32
 12.5666   4198.58
 12.576   4209.32
 12.5853   4209.75
 12.5947   4195.18
 12.6041   4202.54
 12.6134   4229.6
 12.6228   4235.4
 12.6321   4247.65
 12.6415   4244.84
 12.6509   4267.08
 12.6602   4255.79
 12.6696   4265.06
 12.6789   4265.54
 12.6883   4244.47
 12.6977   4241.31