File: docs/GuiliangJun25_tutorial_output/integrals/MA2b-00007_om.chi
MA2b-00007.tif Azm= 0.00
2-Theta Angle (Degrees)
Intensity
       2500
 1.00702   8017.9
 1.01638   7944.55
 1.02574   7877.06
 1.0351   7806.3
 1.04446   7746.84
 1.05382   7720.26
 1.06318   7682.37
 1.07254   7615.2
 1.0819   7591.65
 1.09126   7554.32
 1.10062   7495.68
 1.10998   7465.17
 1.11934   7434.83
 1.1287   7402.81
 1.13806   7362.74
 1.14742   7309.98
 1.15678   7329.61
 1.16614   7300.93
 1.1755   7316.95
 1.18486   7295.59
 1.19422   7304.43
 1.20358   7237.5
 1.21294   7212.68
 1.2223   7221.3
 1.23166   7194.38
 1.24102   7196.75
 1.25038   7167.88
 1.25974   7181.34
 1.2691   7181.92
 1.27846   7190.48
 1.28782   7183.49
 1.29718   7164.75
 1.30654   7170.23
 1.3159   7190.78
 1.32526   7187.53
 1.33462   7206.99
 1.34398   7230.97
 1.35334   7182.75
 1.3627   7240.66
 1.37206   7261.38
 1.38142   7270.86
 1.39078   7304.48
 1.40014   7310
 1.4095   7342.9
 1.41886   7387.82
 1.42822   7411.1
 1.43758   7447.39
 1.44694   7505.64
 1.4563   7525.1
 1.46566   7636.48
 1.47502   7678.89
 1.48438   7693.23
 1.49374   7729.96
 1.5031   7779.52
 1.51246   7813.48
 1.52182   7841.99
 1.53118   7792.24
 1.54054   7818.61
 1.5499   7820.27
 1.55926   7778.83
 1.56862   7752.97
 1.57798   7755.35
 1.58734   7755.66
 1.5967   7746.16
 1.60606   7731.5
 1.61542   7740.44
 1.62478   7756.67
 1.63414   7729.97
 1.6435   7729.07
 1.65286   7743.27
 1.66222   7739.47
 1.67158   7756.48
 1.68094   7757.57
 1.6903   7736.73
 1.69966   7786.34
 1.70902   7781.13
 1.71838   7802.14
 1.72774   7783.65
 1.7371   7789.18
 1.74646   7791.04
 1.75582   7833.98
 1.76518   7835.42
 1.77454   7849.09
 1.7839   7877.63
 1.79326   7894.58
 1.80262   7956.32
 1.81198   7968.7
 1.82134   8001.77
 1.8307   8040.75
 1.84006   8070.45
 1.84942   8090.18
 1.85878   8112.11
 1.86814   8170.39
 1.8775   8231.85
 1.88686   8280.01
 1.89622   8317.43
 1.90558   8352.09
 1.91494   8399.11
 1.9243   8475.03
 1.93366   8502.85
 1.94302   8552.6
 1.95238   8607.69
 1.96174   8656.85
 1.9711   8698.26
 1.98046   8767.34
 1.98982   8820.75
 1.99918   8858.45
 2.00854   8924.22
 2.0179   8969.44
 2.02726   9034.99
 2.03662   9114.2
 2.04598   9188.51
 2.05534   9276.88
 2.0647   9373
 2.07406   9529.6
 2.08342   9793.04
 2.09278   10245.4
 2.10214   11111.5
 2.1115   12919.6
 2.12086   16615.2
 2.13022   22745.3
 2.13958   29551.5
 2.14894   32992.9
 2.1583   31041
 2.16766   25894.2
 2.17702   20841.8
 2.18638   17213.5
 2.19574   14831.6
 2.2051   13267.5
 2.21446   12336.2
 2.22382   11818.5
 2.23318   11530.1
 2.24254   11285.6
 2.2519   11056.5
 2.26126   10812
 2.27062   10614.6
 2.27998   10522
 2.28934   10500.7
 2.2987   10490.9
 2.30806   10517.2
 2.31742   10577.8
 2.32678   10607.4
 2.33614   10666.3
 2.3455   10725.9
 2.35486   10779.6
 2.36422   10824.6
 2.37358   10885
 2.38294   10955.7
 2.3923   11010.1
 2.40166   11083.6
 2.41102   11163.5
 2.42038   11229.9
 2.42974   11313.8
 2.4391   11381.1
 2.44846   11439.7
 2.45782   11509.7
 2.46718   11587
 2.47654   11675.9
 2.4859   11733.1
 2.49526   11802
 2.50462   11884.5
 2.51398   11951.6
 2.52334   12039.4
 2.5327   12089.7
 2.54206   12171.6
 2.55142   12241.9
 2.56078   12308.2
 2.57014   12347.4
 2.5795   12446.9
 2.58886   12500.3
 2.59822   12558.3
 2.60758   12578.8
 2.61694   12619.9
 2.6263   12681.1
 2.63566   12707.5
 2.64502   12750.3
 2.65438   12788.9
 2.66374   12822
 2.6731   12837.5
 2.68246   12873.6
 2.69182   12880.9
 2.70118   12887.8
 2.71054   12884.2
 2.7199   12910.1
 2.72926   12930.1
 2.73862   12906.5
 2.74798   12885.8
 2.75734   12897.4
 2.7667   12881.1
 2.77606   12885.4
 2.78542   12863.7
 2.79478   12833.7
 2.80414   12831
 2.8135   12793.3
 2.82286   12771
 2.83222   12741.6
 2.84158   12730.1
 2.85094   12662.3
 2.8603   12638.2
 2.86966   12602.3
 2.87902   12586.8
 2.88838   12530.4
 2.89774   12499.6
 2.9071   12476.7
 2.91646   12421.6
 2.92582   12386.6
 2.93518   12369.3
 2.94454   12351.3
 2.9539   12304.3
 2.96326   12244.9
 2.97262   12194.8
 2.98198   12170.3
 2.99134   12097.3
 3.0007   12033.7
 3.01006   11985.9
 3.01942   11961
 3.02878   11907.5
 3.03814   11836.3
 3.0475   11783.6
 3.05686   11718.2
 3.06622   11661.9
 3.07558   11624.5
 3.08494   11579.1
 3.0943   11521.7
 3.10366   11468.6
 3.11302   11427
 3.12238   11410.9
 3.13174   11353.5
 3.1411   11303.2
 3.15046   11277.7
 3.15982   11238.1
 3.16918   11218.3
 3.17854   11177.6
 3.1879   11163
 3.19726   11119.3
 3.20662   11096.3
 3.21598   11063.5
 3.22534   11018
 3.2347   10979.2
 3.24406   10955
 3.25342   10943.2
 3.26278   10943.6
 3.27214   10912.4
 3.2815   10867.8
 3.29086   10846.7
 3.30022   10845.8
 3.30958   10848.8
 3.31894   10816.7
 3.3283   10832
 3.33766   10830.8
 3.34702   10817.4
 3.35638   10830
 3.36574   10831.4
 3.3751   10812.9
 3.38446   10785.9
 3.39382   10788.7
 3.40318   10799.6
 3.41254   10822.9
 3.4219   10790.9
 3.43126   10825.1
 3.44062   10841.8
 3.44998   10846.5
 3.45934   10830.7
 3.4687   10821.7
 3.47806   10845.5
 3.48742   10836.1
 3.49678   10812.9
 3.50614   10822.8
 3.5155   10835.6
 3.52486   10811.1
 3.53422   10814.3
 3.54358   10848.7
 3.55294   10847
 3.5623   10800.5
 3.57166   10799.7
 3.58102   10837.7
 3.59038   10823.3
 3.59974   10779.6
 3.6091   10806.2
 3.61846   10844.6
 3.62782   10781.2
 3.63718   10728.2
 3.64654   10775.6
 3.6559   10809
 3.66526   10725.2
 3.67462   10635.9
 3.68398   10699.8
 3.69334   10652
 3.7027   10464.2
 3.71206   10451.8
 3.72142   10477.8
 3.73078   10387.8
 3.74014   10246
 3.7495   10249.8
 3.75886   10163
 3.76822   10059.1
 3.77758   9931.46
 3.78694   9895.25
 3.7963   9908.39
 3.80566   9725.9
 3.81502   9693.74
 3.82438   9729.06
 3.83374   9621.63
 3.8431   9448.7
 3.85246   9487.74
 3.86182   9475.59
 3.87118   9455.35
 3.88054   9281.04
 3.8899   9213.64
 3.89926   9185.68
 3.90862   9055.5
 3.91798   8988.04
 3.92734   9049.15
 3.9367   8948.78
 3.94606   8852.21
 3.95542   8863.68
 3.96478   8798.47
 3.97414   8739.52
 3.9835   8711.66
 3.99286   8644.82
 4.00222   8662.72
 4.01158   8612.76
 4.02094   8475.74
 4.0303   8482.29
 4.03966   8503.79
 4.04902   8372.94
 4.05838   8354.3
 4.06774   8359.81
 4.0771   8316.01
 4.08646   8258.11
 4.09582   8183.3
 4.10518   8212.57
 4.11454   8226.38
 4.1239   8123.42
 4.13326   8068.22
 4.14262   8106.96
 4.15198   8055.52
 4.16134   7950.95
 4.1707   7964.47
 4.18006   8000.77
 4.18942   7980.25
 4.19878   7917.7
 4.20814   7938.42
 4.2175   8075.11
 4.22686   8016.78
 4.23622   7931.86
 4.24558   8186.27
 4.25494   8426.76
 4.2643   8729.99
 4.27366   9303.4
 4.28302   9841.87
 4.29238   10173.7
 4.30174   10092.9
 4.3111   9779.68
 4.32046   9402.18
 4.32982   9001.68
 4.33918   8688.97
 4.34854   8466.92
 4.3579   8350.69
 4.36726   8173.16
 4.37662   8037.26
 4.38598   7941.88
 4.39534   7913.95
 4.4047   7856.67
 4.41406   7732.79
 4.42342   7684.27
 4.43278   7701.05
 4.44214   7622.97
 4.4515   7558.15
 4.46086   7538.25
 4.47022   7505.67
 4.47958   7424.16
 4.48894   7382.36
 4.4983   7364.73
 4.50766   7297.51
 4.51702   7193.67
 4.52638   7167.04
 4.53574   7128.84
 4.5451   7082.05
 4.55446   7042.7
 4.56382   7019.03
 4.57318   6989.72
 4.58254   6949.68
 4.5919   6914.56
 4.60126   6885.58
 4.61062   6857.59
 4.61998   6802.99
 4.62934   6781.87
 4.6387   6782.45
 4.64806   6740.35
 4.65742   6691.02
 4.66678   6697.5
 4.67614   6664.94
 4.6855   6654.38
 4.69486   6643.56
 4.70422   6636.87
 4.71358   6658.72
 4.72294   6685.91
 4.7323   6728.45
 4.74166   6752.03
 4.75102   6805.38
 4.76038   6855.01
 4.76974   6948
 4.7791   7099.69
 4.78846   7307.15
 4.79782   7603.69
 4.80718   8013.96
 4.81654   8529.39
 4.8259   9101.68
 4.83526   9604.98
 4.84462   9793.23
 4.85398   9525.15
 4.86334   8921.7
 4.8727   8226.47
 4.88206   7736.53
 4.89142   7438.42
 4.90078   7306.8
 4.91014   7336.14
 4.9195   7407.19
 4.92886   7562.16
 4.93822   7783.96
 4.94758   8109.52
 4.95694   8558.51
 4.9663   9182.7
 4.97566   9873.36
 4.98502   10519.2
 4.99438   10896.6
 5.00374   10885.8
 5.0131   10427.2
 5.02246   9692.2
 5.03182   8840.53
 5.04118   8116.42
 5.05054   7557.48
 5.0599   7208.56
 5.06926   7030.71
 5.07862   7054.34
 5.08798   7175.43
 5.09734   7370.78
 5.1067   8126.33
 5.11606   7953.98
 5.12542   8850.37
 5.13478   11393.8
 5.14414   13184.6
 5.1535   12098.9
 5.16286   9799.3
 5.17222   7787.35
 5.18158   6767.34
 5.19094   6786.39
 5.2003   6621.67
 5.20966   6376.18
 5.21902   6305.78
 5.22838   6165.39
 5.23774   6098.68
 5.2471   6074.35
 5.25646   6005.26
 5.26582   5963.78
 5.27518   5926.02
 5.28454   5935.12
 5.2939   5911.82
 5.30326   5881.11
 5.31262   5868.83
 5.32198   5880.62
 5.33134   5859.3
 5.3407   5836.24
 5.35006   5827.29
 5.35942   5825.33
 5.36878   5817.68
 5.37814   5819.04
 5.3875   5825.62
 5.39686   5833.72
 5.40622   5831.65
 5.41558   5828.75
 5.42494   5836.6
 5.4343   5846.61
 5.44366   5860.82
 5.45302   5882.9
 5.46238   5905.92
 5.47174   5962.21
 5.4811   6013.83
 5.49046   6067.94
 5.49982   6184.98
 5.50918   6330.24
 5.51854   6553.92
 5.5279   6865.23
 5.53726   7315.44
 5.54662   7842.85
 5.55598   8310.83
 5.56534   8609.38
 5.5747   8693.54
 5.58406   8585.68
 5.59342   8295.25
 5.60278   7961.89
 5.61214   7605.95
 5.6215   7256.56
 5.63086   6982.08
 5.64022   6761.11
 5.64958   6605.03
 5.65894   6453.49
 5.6683   6335.57
 5.67766   6238.98
 5.68702   6189.33
 5.69638   6126.52
 5.70574   6085.54
 5.7151   6055.2
 5.72446   6049.79
 5.73382   6043.8
 5.74318   6075.49
 5.75254   6105.88
 5.7619   6135.22
 5.77126   6143.78
 5.78062   6121.87
 5.78998   6116.81
 5.79934   6135.33
 5.8087   6129.97
 5.81806   6135.35
 5.82742   6166.74
 5.83678   6222.1
 5.84614   6280.79
 5.8555   6358.46
 5.86486   6480.81
 5.87422   6624.88
 5.88358   6825.6
 5.89294   7062.25
 5.9023   7419.4
 5.91166   8056
 5.92102   8851.21
 5.93038   9551.45
 5.93974   10863.3
 5.9491   11248.3
 5.95846   11023.2
 5.96782   11095.8
 5.97718   10945.8
 5.98654   10645.1
 5.9959   10200.3
 6.00526   9602.95
 6.01462   8984.45
 6.02398   8375.14
 6.03334   7792.81
 6.0427   7361.3
 6.05206   7019.03
 6.06142   6748.69
 6.07078   6518.76
 6.08014   6374.87
 6.0895   6282.42
 6.09886   6193.97
 6.10822   6112.67
 6.11758   6070.16
 6.12694   6049.26
 6.1363   6004.24
 6.14566   5971.01
 6.15502   5970.16
 6.16438   5970.45
 6.17374   5944.65
 6.1831   5940.57
 6.19246   5942.87
 6.20182   5958.68
 6.21118   5944.04
 6.22054   5914.81
 6.2299   5948.25
 6.23926   5945.49
 6.24862   5929.53
 6.25798   5953.76
 6.26734   5960.1
 6.2767   5953.06
 6.28606   5954.99
 6.29542   5968.69
 6.30478   5982.91
 6.31414   5991.07
 6.3235   5975.15
 6.33286   6000.36
 6.34222   6009
 6.35158   6009.31
 6.36094   5989
 6.3703   5994.36
 6.37966   5997.01
 6.38902   6002.33
 6.39838   6008.22
 6.40774   6050.24
 6.4171   6085.26
 6.42646   6078.6
 6.43582   6087.38
 6.44518   6108.62
 6.45454   6097.34
 6.4639   6113.03
 6.47326   6106.75
 6.48262   6096.52
 6.49198   6112.49
 6.50134   6095.78
 6.5107   6119.51
 6.52006   6153.24
 6.52942   6102.02
 6.53878   6136.63
 6.54814   6186.8
 6.5575   6205.1
 6.56686   6226.8
 6.57622   6228.47
 6.58558   6270.43
 6.59494   6269
 6.6043   6285.33
 6.61366   6279.6
 6.62302   6296.11
 6.63238   6316.88
 6.64174   6326.04
 6.6511   6363.11
 6.66046   6410.56
 6.66982   6422.59
 6.67918   6431.12
 6.68854   6427.57
 6.6979   6464.2
 6.70726   6518.53
 6.71662   6536.93
 6.72598   6569.17
 6.73534   6635.85
 6.7447   6673.45
 6.75406   6692.63
 6.76342   6715.12
 6.77278   6798.21
 6.78214   6792.82
 6.7915   6811.36
 6.80086   6800.07
 6.81022   6811.88
 6.81958   6833.03
 6.82894   6829.23
 6.8383   6886.83
 6.84766   7011.55
 6.85702   7035.78
 6.86638   7149.68
 6.87574   7283.1
 6.8851   7402.05
 6.89446   7579.29
 6.90382   7809.96
 6.91318   8002.97
 6.92254   8275.7
 6.9319   8419.63
 6.94126   8479.06
 6.95062   8517.52
 6.95998   8514.91
 6.96934   8312.25
 6.9787   8187.45
 6.98806   8061.68
 6.99742   7926.88
 7.00678   7814.54
 7.01614   7708.96
 7.0255   7626.35
 7.03486   7586.88
 7.04422   7541.82
 7.05358   7467.92
 7.06294   7488.19
 7.0723   7416.08
 7.08166   7255.67
 7.09102   7109.05
 7.10038   7022.93
 7.10974   6936.79
 7.1191   6881.53
 7.12846   6856.17
 7.13782   6827.72
 7.14718   6800.78
 7.15654   6795.54
 7.1659   6753.67
 7.17526   6774.28
 7.18462   6742.41
 7.19398   6730.49
 7.20334   6715.53
 7.2127   6723.11
 7.22206   6684.43
 7.23142   6692.86
 7.24078   6693.68
 7.25014   6709.17
 7.2595   6714.69
 7.26886   6725.72
 7.27822   6726.65
 7.28758   6729.32
 7.29694   6699.58
 7.3063   6719.26
 7.31566   6740.77
 7.32502   6795.79
 7.33438   6797.8
 7.34374   6833.17
 7.3531   6860.52
 7.36246   6890.18
 7.37182   6933.06
 7.38118   6961.7
 7.39054   7007.73
 7.3999   7058.98
 7.40926   7111.86
 7.41862   7188.44
 7.42798   7292.93
 7.43734   7385.98
 7.4467   7478
 7.45606   7539.03
 7.46542   7569.74
 7.47478   7552.2
 7.48414   7513.29
 7.4935   7427.57
 7.50286   7369.4
 7.51222   7269.58
 7.52158   7169.42
 7.53094   7077
 7.5403   7016
 7.54966   6963.05
 7.55902   6904.65
 7.56838   6867.04
 7.57774   6835.15
 7.5871   6787.77
 7.59646   6744.51
 7.60582   6677.35
 7.61518   6651.2
 7.62454   6536.31
 7.6339   6451.39
 7.64326   6382.54
 7.65262   6329.69
 7.66198   6287.54
 7.67134   6233.04
 7.6807   6186.92
 7.69006   6156.94
 7.69942   6115.5
 7.70878   6116.01
 7.71814   6075.66
 7.7275   6049.79
 7.73686   6033.47
 7.74622   6005.17
 7.75558   5960.84
 7.76494   5954.44
 7.7743   5933.03
 7.78366   5910.97
 7.79302   5907.96
 7.80238   5883.04
 7.81174   5866.5
 7.8211   5848.16
 7.83046   5804.29
 7.83982   5808.82
 7.84918   5796.44
 7.85854   5773.9
 7.8679   5745.21
 7.87726   5755.63
 7.88662   5751.91
 7.89598   5712.73
 7.90534   5688.19
 7.9147   5684.77
 7.92406   5682.31
 7.93342   5666.27
 7.94278   5638.45
 7.95214   5635.23
 7.9615   5637.86
 7.97086   5616.69
 7.98022   5601.2
 7.98958   5617.1
 7.99894   5608.37
 8.0083   5587.08
 8.01766   5558.27
 8.02702   5542.26
 8.03638   5570.81
 8.04574   5545.84
 8.0551   5522.61
 8.06446   5547.06
 8.07382   5557.2
 8.08318   5550.93
 8.09254   5567.06
 8.1019   5613.3
 8.11126   5654.84
 8.12062   5648.97
 8.12998   5656.39
 8.13934   5672.43
 8.1487   5688.97
 8.15806   5695.43
 8.16742   5700.15
 8.17678   5716.55
 8.18614   5764.09
 8.1955   5804.3
 8.20486   5890.4
 8.21422   6020.35
 8.22358   6156.3
 8.23294   6288.49
 8.2423   6488.6
 8.25166   6748.28
 8.26102   7006.25
 8.27038   7262.14
 8.27974   7541.61
 8.2891   7761.1
 8.29846   7884.19
 8.30782   7858.81
 8.31718   7702.72
 8.32654   7356.88
 8.3359   6989.99
 8.34526   6632.66
 8.35462   6362.26
 8.36398   6170.79
 8.37334   6204.25
 8.3827   6422.64
 8.39206   6446.72
 8.40142   6927.55
 8.41078   7100.8
 8.42014   6823.04
 8.4295   6230.81
 8.43886   6101.87
 8.44822   5811.16
 8.45758   5739.13
 8.46694   5725.26
 8.4763   5767.23
 8.48566   5820.4
 8.49502   5913.9
 8.50438   6021.69
 8.51374   6173.3
 8.5231   6341.33
 8.53246   6542.85
 8.54182   6771.7
 8.55118   7018.13
 8.56054   7237.78
 8.5699   7422.11
 8.57926   7551.31
 8.58862   7574.52
 8.59798   7505.05
 8.60734   7337.57
 8.6167   7140.02
 8.62606   6892.73
 8.63542   6671.96
 8.64478   6445.65
 8.65414   6236.23
 8.6635   6058.28
 8.67286   5902.49
 8.68222   5765.38
 8.69158   5668.71
 8.70094   5572.25
 8.7103   5505.04
 8.71966   5446.55
 8.72902   5406.63
 8.73838   5344.49
 8.74774   5320.65
 8.7571   5284.59
 8.76646   5257.22
 8.77582   5236.04
 8.78518   5215.45
 8.79454   5204.81
 8.8039   5191.59
 8.81326   5164.83
 8.82262   5150.01
 8.83198   5137.59
 8.84134   5119.22
 8.8507   5100.07
 8.86006   5060.51
 8.86942   5051.46
 8.87878   5038.47
 8.88814   5022.4
 8.8975   4998.73
 8.90686   4993.05
 8.91622   4998.98
 8.92558   4992.57
 8.93494   4975.43
 8.9443   4974.02
 8.95366   5002.29
 8.96302   4979.75
 8.97238   4981.7
 8.98174   5000.38
 8.9911   4982.58
 9.00046   4983.61
 9.00982   4964.97
 9.01918   4964.8
 9.02854   4965.32
 9.0379   4956.98
 9.04726   4948.93
 9.05662   4942.4
 9.06598   4949.55
 9.07534   4939.24
 9.0847   4935.86
 9.09406   4957.14
 9.10342   4957.86
 9.11278   4977.89
 9.12214   4982.73
 9.1315   5005.81
 9.14086   5029.24
 9.15022   5043.67
 9.15958   5066.41
 9.16894   5094.75
 9.1783   5130.07
 9.18766   5159.71
 9.19702   5192.47
 9.20638   5221.05
 9.21574   5255.81
 9.2251   5267.15
 9.23446   5283.55
 9.24382   5309.28
 9.25318   5341.29
 9.26254   5375.58
 9.2719   5401.41
 9.28126   5437.81
 9.29062   5489.43
 9.29998   5532.67
 9.30934   5593.12
 9.3187   5627.33
 9.32806   5680.95
 9.33742   5711.17
 9.34678   5714.17
 9.35614   5705.06
 9.3655   5678.97
 9.37486   5622.44
 9.38422   5537.79
 9.39358   5475.46
 9.40294   5398.99
 9.4123   5319.05
 9.42166   5263.14
 9.43102   5208.55
 9.44038   5176.12
 9.44974   5148.62
 9.4591   5126.41
 9.46846   5109.91
 9.47782   5111.24
 9.48718   5111.22
 9.49654   5112.79
 9.5059   5124.24
 9.51526   5128.58
 9.52462   5114.49
 9.53398   5127.03
 9.54334   5140.47
 9.5527   5158.55
 9.56206   5189.51
 9.57142   5211.14
 9.58078   5248.85
 9.59014   5287.72
 9.5995   5313.51
 9.60886   5356.78
 9.61822   5384.3
 9.62758   5398.1
 9.63694   5414.85
 9.6463   5414.23
 9.65566   5436.15
 9.66502   5470.63
 9.67438   5504.71
 9.68374   5529.8
 9.6931   5538.51
 9.70246   5553.32
 9.71182   5520.46
 9.72118   5446.41
 9.73054   5385.6
 9.7399   5304.41
 9.74926   5252.87
 9.75862   5201.66
 9.76798   5176.67
 9.77734   5173.66
 9.7867   5181.29
 9.79606   5189.41
 9.80542   5260.22
 9.81478   5382.7
 9.82414   5637.42
 9.8335   6301.12
 9.84286   7486.11
 9.85222   8870.15
 9.86158   10878.3
 9.87094   10280.6
 9.8803   8359.65
 9.88966   6737.48
 9.89902   6026.32
 9.90838   5564.35
 9.91774   5410.17
 9.9271   5350.61
 9.93646   5326.98
 9.94582   5311.73
 9.95518   5318.12
 9.96454   5334.76
 9.9739   5338.7
 9.98326   5348.84
 9.99262   5361.36
 10.002   5365.48
 10.0113   5353.81
 10.0207   5343.95
 10.0301   5320.18
 10.0394   5299.06
 10.0488   5280.6
 10.0581   5260.33
 10.0675   5256.89
 10.0769   5244.02
 10.0862   5235.12
 10.0956   5227.97
 10.1049   5217.08
 10.1143   5216.76
 10.1237   5227.93
 10.133   5229.6
 10.1424   5252.98
 10.1517   5267.04
 10.1611   5299.19
 10.1705   5346.09
 10.1798   5392.95
 10.1892   5428.03
 10.1985   5505.07
 10.2079   5584.42
 10.2173   5656.15
 10.2266   5718.08
 10.236   5786.74
 10.2453   5816.44
 10.2547   5847.78
 10.2641   5944.46
 10.2734   6077.45
 10.2828   5890.32
 10.2921   6089.03
 10.3015   6158
 10.3109   6035.6
 10.3202   5818.65
 10.3296   5998.17
 10.3389   5559.5
 10.3483   5389.46
 10.3577   5313.38
 10.367   5279.23
 10.3764   5263.27
 10.3857   5265.73
 10.3951   5266.25
 10.4045   5278.22
 10.4138   5310.9
 10.4232   5320.96
 10.4325   5352.04
 10.4419   5387.63
 10.4513   5422.41
 10.4606   5455.04
 10.47   5488.82
 10.4793   5517.19
 10.4887   5511.88
 10.4981   5503.78
 10.5074   5501.9
 10.5168   5465.63
 10.5261   5427.22
 10.5355   5390.98
 10.5449   5362.02
 10.5542   5317.85
 10.5636   5278.59
 10.5729   5237.86
 10.5823   5194.99
 10.5917   5158.72
 10.601   5141.2
 10.6104   5123.47
 10.6197   5105.69
 10.6291   5098.24
 10.6385   5072.8
 10.6478   5055.15
 10.6572   5055.35
 10.6665   5042.28
 10.6759   5037.95
 10.6853   5041.4
 10.6946   5062.88
 10.704   5072.46
 10.7133   5085.92
 10.7227   5111.17
 10.7321   5128.42
 10.7414   5156.6
 10.7508   5176.35
 10.7601   5166.6
 10.7695   5171.89
 10.7789   5177.17
 10.7882   5173.9
 10.7976   5156.34
 10.8069   5169.14
 10.8163   5154.59
 10.8257   5143.17
 10.835   5134.21
 10.8444   5120.77
 10.8537   5105
 10.8631   5084.18
 10.8725   5057.79
 10.8818   5034.96
 10.8912   5002.28
 10.9005   4975.58
 10.9099   4960.85
 10.9193   4927.8
 10.9286   4911.38
 10.938   4895.3
 10.9473   4874.32
 10.9567   4849.56
 10.9661   4843.51
 10.9754   4842.72
 10.9848   4821.28
 10.9941   4809.24
 11.0035   4806.01
 11.0129   4816.43
 11.0222   4812.44
 11.0316   4805.18
 11.0409   4822.71
 11.0503   4819.7
 11.0597   4836.91
 11.069   4817.08
 11.0784   4828.7
 11.0877   4844.12
 11.0971   4859.75
 11.1065   4867.04
 11.1158   4902.22
 11.1252   4922.99
 11.1345   4954.71
 11.1439   4956.76
 11.1533   4976.52
 11.1626   4967.34
 11.172   4982.01
 11.1813   4967.15
 11.1907   4956.68
 11.2001   4918.08
 11.2094   4916.78
 11.2188   4883.35
 11.2281   4866.56
 11.2375   4829.84
 11.2469   4802.56
 11.2562   4770.6
 11.2656   4724.39
 11.2749   4693.72
 11.2843   4682.57
 11.2937   4663.98
 11.303   4642.9
 11.3124   4624.78
 11.3217   4614.28
 11.3311   4612.87
 11.3405   4589.95
 11.3498   4574.4
 11.3592   4570.28
 11.3685   4564.44
 11.3779   4558.05
 11.3873   4554.72
 11.3966   4535.21
 11.406   4535.54
 11.4153   4532.74
 11.4247   4519.56
 11.4341   4508.58
 11.4434   4507.44
 11.4528   4505.58
 11.4621   4496.97
 11.4715   4477.72
 11.4809   4485.06
 11.4902   4485.23
 11.4996   4475.31
 11.5089   4469.84
 11.5183   4469.41
 11.5277   4466.63
 11.537   4472.03
 11.5464   4456.91
 11.5557   4456.79
 11.5651   4445.74
 11.5745   4444.32
 11.5838   4436.66
 11.5932   4428.92
 11.6025   4428.57
 11.6119   4434.74
 11.6213   4432.73
 11.6306   4426.14
 11.64   4420.82
 11.6493   4414.2
 11.6587   4410.08
 11.6681   4395.83
 11.6774   4400.11
 11.6868   4387.83
 11.6961   4388.3
 11.7055   4380.07
 11.7149   4378.48
 11.7242   4373.59
 11.7336   4363.16
 11.7429   4373.77
 11.7523   4364.74
 11.7617   4367.08
 11.771   4369.58
 11.7804   4375.56
 11.7897   4373.31
 11.7991   4370.39
 11.8085   4378.29
 11.8178   4385.47
 11.8272   4392
 11.8365   4397.95
 11.8459   4422.2
 11.8553   4450.75
 11.8646   4485.58
 11.874   4547.66
 11.8833   4580.49
 11.8927   4659.06
 11.9021   4740.79
 11.9114   4755.57
 11.9208   4725.16
 11.9301   4713.29
 11.9395   4716.95
 11.9489   4673.09
 11.9582   4681.35
 11.9676   4677.13
 11.9769   4682.04
 11.9863   4662.1
 11.9957   4642.34
 12.005   4627.32
 12.0144   4601.45
 12.0237   4573.63
 12.0331   4539.65
 12.0425   4507.02
 12.0518   4481.96
 12.0612   4447.4
 12.0705   4421.62
 12.0799   4394.73
 12.0893   4376.84
 12.0986   4345.5
 12.108   4337.31
 12.1173   4308.32
 12.1267   4287.06
 12.1361   4262.03
 12.1454   4242.04
 12.1548   4226.04
 12.1641   4212.52
 12.1735   4206.22
 12.1829   4177.56
 12.1922   4162.58
 12.2016   4165.15
 12.2109   4162.71
 12.2203   4151.45
 12.2297   4130.17
 12.239   4134.97
 12.2484   4115.76
 12.2577   4119.88
 12.2671   4110.62
 12.2765   4122.2
 12.2858   4107.83
 12.2952   4108.93
 12.3045   4109.65
 12.3139   4104.88
 12.3233   4100.32
 12.3326   4108.23
 12.342   4110.57
 12.3513   4122.57
 12.3607   4128.48
 12.3701   4142.99
 12.3794   4154.29
 12.3888   4159.45
 12.3981   4161.58
 12.4075   4163.16
 12.4169   4167.95
 12.4262   4169.48
 12.4356   4171.27
 12.4449   4174.04
 12.4543   4152.75
 12.4637   4147.92
 12.473   4140.83
 12.4824   4133.17
 12.4917   4122.04
 12.5011   4111.77
 12.5105   4112.84
 12.5198   4099.95
 12.5292   4087.96
 12.5385   4080.47
 12.5479   4079.86
 12.5573   4078.26
 12.5666   4073.55
 12.576   4068.25
 12.5853   4075.07
 12.5947   4076.12
 12.6041   4083.57
 12.6134   4088.43
 12.6228   4097.09
 12.6321   4105
 12.6415   4119.22
 12.6509   4128.46
 12.6602   4162.65
 12.6696   4177.19
 12.6789   4191.99
 12.6883   4214.79
 12.6977   4237.84