File: docs/GuiliangJun25_tutorial_output/integrals/MA2b-00007_spotsmasked.chi
MA2b-00007.tif Azm= 0.00
2-Theta Angle (Degrees)
Intensity
       2500
 1.00702   8017.9
 1.01638   7944.55
 1.02574   7882.59
 1.0351   7806.3
 1.04446   7746.84
 1.05382   7720.26
 1.06318   7682.37
 1.07254   7622.26
 1.0819   7596.63
 1.09126   7554.32
 1.10062   7495.68
 1.10998   7465.17
 1.11934   7434.83
 1.1287   7402.81
 1.13806   7362.74
 1.14742   7309.98
 1.15678   7329.61
 1.16614   7306.25
 1.1755   7316.95
 1.18486   7295.59
 1.19422   7310.27
 1.20358   7242.51
 1.21294   7212.68
 1.2223   7221.3
 1.23166   7189.01
 1.24102   7196.75
 1.25038   7167.88
 1.25974   7181.34
 1.2691   7177.69
 1.27846   7190.48
 1.28782   7187.2
 1.29718   7168.53
 1.30654   7170.23
 1.3159   7190.78
 1.32526   7191.12
 1.33462   7206.99
 1.34398   7230.97
 1.35334   7178.49
 1.3627   7240.66
 1.37206   7261.38
 1.38142   7274.37
 1.39078   7304.48
 1.40014   7309.83
 1.4095   7342.9
 1.41886   7387.82
 1.42822   7411.1
 1.43758   7447.39
 1.44694   7501.79
 1.4563   7525.1
 1.46566   7636.48
 1.47502   7678.89
 1.48438   7696.95
 1.49374   7729.96
 1.5031   7779.52
 1.51246   7817.06
 1.52182   7841.99
 1.53118   7799.02
 1.54054   7818.61
 1.5499   7820.27
 1.55926   7782.35
 1.56862   7752.97
 1.57798   7755.35
 1.58734   7755.66
 1.5967   7746.16
 1.60606   7731.5
 1.61542   7740.8
 1.62478   7756.67
 1.63414   7729.97
 1.6435   7732.16
 1.65286   7743.27
 1.66222   7742.11
 1.67158   7758.96
 1.68094   7760.64
 1.6903   7736.73
 1.69966   7789.5
 1.70902   7783.93
 1.71838   7802.14
 1.72774   7783.65
 1.7371   7789.18
 1.74646   7791.04
 1.75582   7836.84
 1.76518   7835.42
 1.77454   7849.09
 1.7839   7875.05
 1.79326   7891.49
 1.80262   7958.84
 1.81198   7968.7
 1.82134   8001.77
 1.8307   8040.75
 1.84006   8070.45
 1.84942   8090.18
 1.85878   8112.11
 1.86814   8173
 1.8775   8229.05
 1.88686   8282.38
 1.89622   8315.03
 1.90558   8351.84
 1.91494   8399.11
 1.9243   8477.22
 1.93366   8500.72
 1.94302   8552.55
 1.95238   8607.69
 1.96174   8656.85
 1.9711   8698.26
 1.98046   8767.34
 1.98982   8816.3
 1.99918   8858.45
 2.00854   8924.22
 2.0179   8969.44
 2.02726   9034.99
 2.03662   9114.2
 2.04598   9188.18
 2.05534   9283.74
 2.0647   9373
 2.07406   9529.6
 2.08342   9796.14
 2.09278   10245.4
 2.10214   11111.5
 2.1115   12919.6
 2.12086   16615.3
 2.13022   22826.8
 2.13958   29551.5
 2.14894   32992.9
 2.1583   31041
 2.16766   25894.2
 2.17702   20841.8
 2.18638   17213.5
 2.19574   14831.6
 2.2051   13267.5
 2.21446   12336.2
 2.22382   11818.5
 2.23318   11530.1
 2.24254   11285.6
 2.2519   11054.1
 2.26126   10815.5
 2.27062   10617.3
 2.27998   10515.2
 2.28934   10500.7
 2.2987   10490.9
 2.30806   10515.3
 2.31742   10575.7
 2.32678   10609.1
 2.33614   10666.3
 2.3455   10721.9
 2.35486   10779.6
 2.36422   10824.6
 2.37358   10885.2
 2.38294   10955.6
 2.3923   11006.3
 2.40166   11085.4
 2.41102   11163.5
 2.42038   11229.9
 2.42974   11313.5
 2.4391   11381.1
 2.44846   11439.7
 2.45782   11517.2
 2.46718   11589
 2.47654   11675.9
 2.4859   11729.4
 2.49526   11800.1
 2.50462   11884.5
 2.51398   11951.7
 2.52334   12041.2
 2.5327   12089.7
 2.54206   12171.6
 2.55142   12243.7
 2.56078   12306.3
 2.57014   12347.4
 2.5795   12446.9
 2.58886   12500.3
 2.59822   12560.1
 2.60758   12580.7
 2.61694   12622.1
 2.6263   12681.1
 2.63566   12707.5
 2.64502   12752.7
 2.65438   12792.2
 2.66374   12812.4
 2.6731   12837.5
 2.68246   12873.6
 2.69182   12882.7
 2.70118   12889.6
 2.71054   12884.2
 2.7199   12910.1
 2.72926   12930.1
 2.73862   12908.9
 2.74798   12884.1
 2.75734   12897.4
 2.7667   12882.7
 2.77606   12887.5
 2.78542   12861.6
 2.79478   12832
 2.80414   12829.2
 2.8135   12793.3
 2.82286   12767.4
 2.83222   12739.9
 2.84158   12727.6
 2.85094   12662.7
 2.8603   12638.2
 2.86966   12603.9
 2.87902   12586.8
 2.88838   12530.4
 2.89774   12499.6
 2.9071   12476.7
 2.91646   12423.2
 2.92582   12384.2
 2.93518   12367.9
 2.94454   12349.5
 2.9539   12304.3
 2.96326   12244.9
 2.97262   12193.2
 2.98198   12170.3
 2.99134   12100.4
 3.0007   12032.1
 3.01006   11984.2
 3.01942   11961
 3.02878   11905.7
 3.03814   11837.7
 3.0475   11786.9
 3.05686   11718.2
 3.06622   11665.4
 3.07558   11622.4
 3.08494   11579.1
 3.0943   11521.7
 3.10366   11468.6
 3.11302   11428.6
 3.12238   11409.2
 3.13174   11353.6
 3.1411   11306.3
 3.15046   11277.7
 3.15982   11238.1
 3.16918   11221.4
 3.17854   11174.1
 3.1879   11163
 3.19726   11121.1
 3.20662   11096.3
 3.21598   11067.3
 3.22534   11021.8
 3.2347   10979.2
 3.24406   10957
 3.25342   10943.2
 3.26278   10943.6
 3.27214   10914.2
 3.2815   10867.8
 3.29086   10846.7
 3.30022   10844
 3.30958   10847.1
 3.31894   10816.7
 3.3283   10834.1
 3.33766   10830.8
 3.34702   10817.4
 3.35638   10829.9
 3.36574   10833.4
 3.3751   10808.7
 3.38446   10785.9
 3.39382   10788.7
 3.40318   10801.8
 3.41254   10822.9
 3.4219   10790.9
 3.43126   10825.1
 3.44062   10841.8
 3.44998   10846.5
 3.45934   10830.7
 3.4687   10821.7
 3.47806   10845.5
 3.48742   10836.1
 3.49678   10812.9
 3.50614   10822.8
 3.5155   10835.6
 3.52486   10811.1
 3.53422   10814.3
 3.54358   10848.7
 3.55294   10847
 3.5623   10804.1
 3.57166   10799.7
 3.58102   10841.9
 3.59038   10823.3
 3.59974   10779.6
 3.6091   10806.2
 3.61846   10844.6
 3.62782   10781.2
 3.63718   10733.4
 3.64654   10775.6
 3.6559   10809
 3.66526   10725.2
 3.67462   10635.9
 3.68398   10699.8
 3.69334   10652
 3.7027   10464.2
 3.71206   10451.8
 3.72142   10477.8
 3.73078   10387.8
 3.74014   10246
 3.7495   10249.8
 3.75886   10163
 3.76822   10059.1
 3.77758   9931.46
 3.78694   9895.25
 3.7963   9908.39
 3.80566   9725.9
 3.81502   9693.74
 3.82438   9729.06
 3.83374   9621.63
 3.8431   9448.7
 3.85246   9487.74
 3.86182   9475.59
 3.87118   9455.35
 3.88054   9281.04
 3.8899   9213.64
 3.89926   9185.68
 3.90862   9055.5
 3.91798   8988.04
 3.92734   9049.15
 3.9367   8948.78
 3.94606   8859.5
 3.95542   8863.68
 3.96478   8798.47
 3.97414   8739.52
 3.9835   8711.66
 3.99286   8644.82
 4.00222   8662.72
 4.01158   8612.76
 4.02094   8475.74
 4.0303   8482.29
 4.03966   8503.79
 4.04902   8372.94
 4.05838   8354.3
 4.06774   8359.81
 4.0771   8316.01
 4.08646   8258.11
 4.09582   8183.3
 4.10518   8212.57
 4.11454   8226.38
 4.1239   8123.42
 4.13326   8068.22
 4.14262   8106.96
 4.15198   8055.52
 4.16134   7950.95
 4.1707   7954.94
 4.18006   8000.77
 4.18942   7980.25
 4.19878   7917.7
 4.20814   7938.42
 4.2175   8075.11
 4.22686   8016.78
 4.23622   7931.86
 4.24558   8186.27
 4.25494   8441.61
 4.2643   8739.42
 4.27366   9311.47
 4.28302   9861.35
 4.29238   10179.7
 4.30174   10092.9
 4.3111   9779.68
 4.32046   9406.51
 4.32982   9001.68
 4.33918   8688.97
 4.34854   8471.3
 4.3579   8350.69
 4.36726   8173.16
 4.37662   8041.39
 4.38598   7941.88
 4.39534   7913.95
 4.4047   7856.67
 4.41406   7732.79
 4.42342   7684.27
 4.43278   7701.05
 4.44214   7622.97
 4.4515   7558.15
 4.46086   7538.25
 4.47022   7505.67
 4.47958   7424.16
 4.48894   7382.36
 4.4983   7364.73
 4.50766   7297.51
 4.51702   7193.67
 4.52638   7167.04
 4.53574   7128.84
 4.5451   7082.05
 4.55446   7042.7
 4.56382   7019.03
 4.57318   6989.72
 4.58254   6949.68
 4.5919   6914.56
 4.60126   6888.15
 4.61062   6857.59
 4.61998   6805.6
 4.62934   6781.87
 4.6387   6782.45
 4.64806   6740.35
 4.65742   6691.02
 4.66678   6697.5
 4.67614   6664.94
 4.6855   6654.38
 4.69486   6643.56
 4.70422   6639
 4.71358   6660.74
 4.72294   6685.91
 4.7323   6728.45
 4.74166   6752.03
 4.75102   6805.38
 4.76038   6855.01
 4.76974   6948
 4.7791   7099.69
 4.78846   7307.15
 4.79782   7608.58
 4.80718   8013.96
 4.81654   8529.39
 4.8259   9096.4
 4.83526   9604.98
 4.84462   9795
 4.85398   9525.15
 4.86334   8921.7
 4.8727   8226.47
 4.88206   7736.53
 4.89142   7438.42
 4.90078   7306.8
 4.91014   7337.59
 4.9195   7408.6
 4.92886   7562.16
 4.93822   7783.96
 4.94758   8117.3
 4.95694   8558.51
 4.9663   9182.7
 4.97566   9869.96
 4.98502   10519.2
 4.99438   10896.6
 5.00374   10885.8
 5.0131   10427.2
 5.02246   9692.2
 5.03182   8840.53
 5.04118   8116.42
 5.05054   7560.31
 5.0599   7210.18
 5.06926   7040.94
 5.07862   7066.42
 5.08798   7258.83
 5.09734   7900.23
 5.1067   9624.13
 5.11606   13007.9
 5.12542   21399.7
 5.13478   39825
 5.14414   51177.4
 5.1535   41657.2
 5.16286   26314.8
 5.17222   14886.8
 5.18158   9456.99
 5.19094   7381.65
 5.2003   6791.64
 5.20966   6508
 5.21902   6333.89
 5.22838   6181.44
 5.23774   6105.14
 5.2471   6074.94
 5.25646   6006.4
 5.26582   5963.78
 5.27518   5926.02
 5.28454   5936.12
 5.2939   5911.82
 5.30326   5882.15
 5.31262   5870.03
 5.32198   5880.62
 5.33134   5859.32
 5.3407   5836.24
 5.35006   5826.31
 5.35942   5826.36
 5.36878   5816.69
 5.37814   5821.07
 5.3875   5826.64
 5.39686   5838.41
 5.40622   5831.65
 5.41558   5827.74
 5.42494   5836.63
 5.4343   5848.71
 5.44366   5861.88
 5.45302   5883.98
 5.46238   5905.86
 5.47174   5963.17
 5.4811   6013.03
 5.49046   6067.94
 5.49982   6186.63
 5.50918   6329.28
 5.51854   6553.92
 5.5279   6868.91
 5.53726   7315.44
 5.54662   7842.85
 5.55598   8305.96
 5.56534   8611.32
 5.5747   8696.34
 5.58406   8585.68
 5.59342   8295.25
 5.60278   7960.74
 5.61214   7605.95
 5.6215   7256.56
 5.63086   6982.85
 5.64022   6761.11
 5.64958   6605.03
 5.65894   6454.51
 5.6683   6335.74
 5.67766   6238.98
 5.68702   6191.09
 5.69638   6129.48
 5.70574   6085.59
 5.7151   6054.3
 5.72446   6049.76
 5.73382   6044.08
 5.74318   6076.44
 5.75254   6105.88
 5.7619   6137.09
 5.77126   6145.85
 5.78062   6121.87
 5.78998   6116.87
 5.79934   6135.33
 5.8087   6128.97
 5.81806   6135.35
 5.82742   6164.73
 5.83678   6224.12
 5.84614   6279.6
 5.8555   6358.46
 5.86486   6480.11
 5.87422   6627.69
 5.88358   6826.91
 5.89294   7078.89
 5.9023   7568.1
 5.91166   8473.75
 5.92102   10134.7
 5.93038   13095.3
 5.93974   15486.6
 5.9491   15650.2
 5.95846   13902.8
 5.96782   12110.9
 5.97718   11186.4
 5.98654   10721.2
 5.9959   10200.3
 6.00526   9602.95
 6.01462   8984.45
 6.02398   8378.61
 6.03334   7800.44
 6.0427   7362.92
 6.05206   7023.72
 6.06142   6752.93
 6.07078   6518.76
 6.08014   6374.87
 6.0895   6285.27
 6.09886   6195.22
 6.10822   6116.2
 6.11758   6071.24
 6.12694   6050.36
 6.1363   6006.64
 6.14566   5973.44
 6.15502   5970.16
 6.16438   5971.73
 6.17374   5944.65
 6.1831   5940.57
 6.19246   5942.87
 6.20182   5958.68
 6.21118   5944.04
 6.22054   5914.81
 6.2299   5952.5
 6.23926   5945.49
 6.24862   5929.53
 6.25798   5953.76
 6.26734   5961.56
 6.2767   5953.06
 6.28606   5954.99
 6.29542   5970.37
 6.30478   5987.6
 6.31414   5991.07
 6.3235   5975.15
 6.33286   6000.36
 6.34222   6009
 6.35158   6009.31
 6.36094   5989
 6.3703   5996.04
 6.37966   5997.01
 6.38902   6002.33
 6.39838   6010.05
 6.40774   6050.24
 6.4171   6085.26
 6.42646   6078.6
 6.43582   6089.25
 6.44518   6108.62
 6.45454   6099.46
 6.4639   6113.03
 6.47326   6108.92
 6.48262   6096.52
 6.49198   6112.49
 6.50134   6095.78
 6.5107   6119.51
 6.52006   6153.24
 6.52942   6102.02
 6.53878   6136.63
 6.54814   6186.8
 6.5575   6207.67
 6.56686   6226.8
 6.57622   6228.47
 6.58558   6270.43
 6.59494   6269
 6.6043   6285.33
 6.61366   6279.6
 6.62302   6296.11
 6.63238   6316.88
 6.64174   6326.04
 6.6511   6363.11
 6.66046   6410.56
 6.66982   6422.59
 6.67918   6431.12
 6.68854   6427.57
 6.6979   6464.2
 6.70726   6518.53
 6.71662   6536.93
 6.72598   6569.17
 6.73534   6635.85
 6.7447   6673.45
 6.75406   6692.63
 6.76342   6715.12
 6.77278   6798.21
 6.78214   6792.82
 6.7915   6811.36
 6.80086   6800.07
 6.81022   6811.88
 6.81958   6833.03
 6.82894   6833.47
 6.8383   6886.83
 6.84766   7015.91
 6.85702   7035.78
 6.86638   7149.68
 6.87574   7283.1
 6.8851   7402.05
 6.89446   7579.29
 6.90382   7809.96
 6.91318   8002.97
 6.92254   8275.7
 6.9319   8419.63
 6.94126   8479.06
 6.95062   8517.52
 6.95998   8514.91
 6.96934   8312.25
 6.9787   8187.45
 6.98806   8061.68
 6.99742   7926.88
 7.00678   7814.54
 7.01614   7708.96
 7.0255   7626.35
 7.03486   7586.88
 7.04422   7541.82
 7.05358   7467.92
 7.06294   7494.89
 7.0723   7416.08
 7.08166   7255.67
 7.09102   7109.05
 7.10038   7022.93
 7.10974   6936.79
 7.1191   6883.98
 7.12846   6856.17
 7.13782   6827.72
 7.14718   6800.78
 7.15654   6795.54
 7.1659   6753.67
 7.17526   6774.28
 7.18462   6742.41
 7.19398   6730.49
 7.20334   6715.53
 7.2127   6723.11
 7.22206   6686.1
 7.23142   6692.86
 7.24078   6693.68
 7.25014   6709.17
 7.2595   6714.69
 7.26886   6728.46
 7.27822   6726.65
 7.28758   6729.32
 7.29694   6699.58
 7.3063   6720.67
 7.31566   6744.46
 7.32502   6796.96
 7.33438   6802.17
 7.34374   6833.17
 7.3531   6862.53
 7.36246   6892.37
 7.37182   6934.02
 7.38118   6963.59
 7.39054   7010.11
 7.3999   7060.04
 7.40926   7113.92
 7.41862   7188.44
 7.42798   7291.87
 7.43734   7386.92
 7.4467   7478
 7.45606   7539.03
 7.46542   7569.74
 7.47478   7553.16
 7.48414   7513.29
 7.4935   7428.71
 7.50286   7369.4
 7.51222   7269.58
 7.52158   7169.42
 7.53094   7078.14
 7.5403   7016
 7.54966   6963.05
 7.55902   6904.65
 7.56838   6867.04
 7.57774   6835.15
 7.5871   6787.77
 7.59646   6744.51
 7.60582   6677.35
 7.61518   6651.2
 7.62454   6536.31
 7.6339   6451.39
 7.64326   6382.54
 7.65262   6332.63
 7.66198   6287.54
 7.67134   6233.04
 7.6807   6188.41
 7.69006   6156.94
 7.69942   6115.5
 7.70878   6116.01
 7.71814   6075.66
 7.7275   6049.79
 7.73686   6034.91
 7.74622   6009.5
 7.75558   5962.12
 7.76494   5956
 7.7743   5933.03
 7.78366   5912.48
 7.79302   5911.19
 7.80238   5883.04
 7.81174   5866.5
 7.8211   5848.16
 7.83046   5804.29
 7.83982   5808.82
 7.84918   5798.14
 7.85854   5773.9
 7.8679   5746.74
 7.87726   5755.63
 7.88662   5751.91
 7.89598   5714.2
 7.90534   5688.19
 7.9147   5686.59
 7.92406   5682.31
 7.93342   5666.27
 7.94278   5638.45
 7.95214   5636.7
 7.9615   5639.4
 7.97086   5616.69
 7.98022   5601.2
 7.98958   5618.58
 7.99894   5608.37
 8.0083   5590.16
 8.01766   5559.88
 8.02702   5545.38
 8.03638   5572.3
 8.04574   5547.32
 8.0551   5524.2
 8.06446   5547.06
 8.07382   5557.2
 8.08318   5550.93
 8.09254   5567.06
 8.1019   5614.63
 8.11126   5656.14
 8.12062   5650.59
 8.12998   5656.39
 8.13934   5676.34
 8.1487   5689.94
 8.15806   5698.27
 8.16742   5700.15
 8.17678   5719.26
 8.18614   5768.18
 8.1955   5805.61
 8.20486   5890.4
 8.21422   6021.6
 8.22358   6156.3
 8.23294   6288.49
 8.2423   6490.03
 8.25166   6748.28
 8.26102   7006.25
 8.27038   7265.73
 8.27974   7543.5
 8.2891   7762.37
 8.29846   7886.72
 8.30782   7861.35
 8.31718   7702.72
 8.32654   7358.29
 8.3359   6989.99
 8.34526   6633.77
 8.35462   6363.6
 8.36398   6170.79
 8.37334   6211.24
 8.3827   6549.04
 8.39206   7243.56
 8.40142   8250.39
 8.41078   8587.32
 8.42014   7884.91
 8.4295   6685.2
 8.43886   6129.41
 8.44822   5816.85
 8.45758   5739.13
 8.46694   5725.26
 8.4763   5767.23
 8.48566   5820.4
 8.49502   5915.96
 8.50438   6021.69
 8.51374   6174.25
 8.5231   6344.12
 8.53246   6542.85
 8.54182   6772.65
 8.55118   7020.74
 8.56054   7238.77
 8.5699   7427.1
 8.57926   7553.62
 8.58862   7577.31
 8.59798   7505.88
 8.60734   7338.49
 8.6167   7140.02
 8.62606   6898.41
 8.63542   6672.98
 8.64478   6445.65
 8.65414   6238.6
 8.6635   6058.28
 8.67286   5903.17
 8.68222   5767.01
 8.69158   5668.71
 8.70094   5573.14
 8.7103   5507.4
 8.71966   5449.83
 8.72902   5409.08
 8.73838   5344.49
 8.74774   5321.36
 8.7571   5285.49
 8.76646   5257.22
 8.77582   5237.5
 8.78518   5216.18
 8.79454   5204.81
 8.8039   5191.59
 8.81326   5164.83
 8.82262   5150.01
 8.83198   5137.59
 8.84134   5119.22
 8.8507   5101.66
 8.86006   5061.26
 8.86942   5052.2
 8.87878   5041.24
 8.88814   5022.4
 8.8975   4999.43
 8.90686   4994.43
 8.91622   5000.41
 8.92558   4993.96
 8.93494   4975.43
 8.9443   4975.52
 8.95366   5002.29
 8.96302   4980.51
 8.97238   4981.7
 8.98174   5001.04
 8.9911   4982.64
 9.00046   4982.97
 9.00982   4964.92
 9.01918   4964.8
 9.02854   4965.86
 9.0379   4957.19
 9.04726   4950.71
 9.05662   4942.97
 9.06598   4951.33
 9.07534   4941.04
 9.0847   4937.14
 9.09406   4957.49
 9.10342   4958.4
 9.11278   4977.32
 9.12214   4983.85
 9.1315   5008.01
 9.14086   5030.31
 9.15022   5045.3
 9.15958   5068.8
 9.16894   5096.98
 9.1783   5131.78
 9.18766   5160.84
 9.19702   5194.53
 9.20638   5221.39
 9.21574   5256.79
 9.2251   5268.82
 9.23446   5286.36
 9.24382   5312.02
 9.25318   5342.23
 9.26254   5375.64
 9.2719   5403.03
 9.28126   5437.86
 9.29062   5491.46
 9.29998   5537.72
 9.30934   5593.38
 9.3187   5630.45
 9.32806   5684.77
 9.33742   5712.29
 9.34678   5715.1
 9.35614   5707.16
 9.3655   5678.97
 9.37486   5621.48
 9.38422   5539.8
 9.39358   5474.86
 9.40294   5399.41
 9.4123   5319.57
 9.42166   5262.68
 9.43102   5209.53
 9.44038   5178.45
 9.44974   5148.65
 9.4591   5127.13
 9.46846   5111.35
 9.47782   5112.26
 9.48718   5111.72
 9.49654   5112.87
 9.5059   5123.75
 9.51526   5128.6
 9.52462   5113.97
 9.53398   5127.03
 9.54334   5140.41
 9.5527   5158.83
 9.56206   5190.66
 9.57142   5211.83
 9.58078   5249.39
 9.59014   5287.18
 9.5995   5314.09
 9.60886   5358.86
 9.61822   5387.36
 9.62758   5399.4
 9.63694   5416.95
 9.6463   5418.16
 9.65566   5439.96
 9.66502   5478.24
 9.67438   5515.4
 9.68374   5542.75
 9.6931   5555.21
 9.70246   5578.37
 9.71182   5552.76
 9.72118   5468.78
 9.73054   5400.11
 9.7399   5317.35
 9.74926   5261.77
 9.75862   5211.04
 9.76798   5185.42
 9.77734   5180.15
 9.7867   5182.38
 9.79606   5193.42
 9.80542   5264.19
 9.81478   5383.62
 9.82414   5688.91
 9.8335   6439.1
 9.84286   8140.66
 9.85222   10634.2
 9.86158   12562.7
 9.87094   11779.3
 9.8803   9266.81
 9.88966   7120.53
 9.89902   6041.46
 9.90838   5577.69
 9.91774   5410.54
 9.9271   5350.61
 9.93646   5327.67
 9.94582   5313.04
 9.95518   5319.48
 9.96454   5335.56
 9.9739   5338.7
 9.98326   5348.84
 9.99262   5362.06
 10.002   5366.83
 10.0113   5356.44
 10.0207   5343.95
 10.0301   5320.88
 10.0394   5299.82
 10.0488   5283.85
 10.0581   5261.7
 10.0675   5257.54
 10.0769   5244.77
 10.0862   5237.13
 10.0956   5229.93
 10.1049   5217.74
 10.1143   5217.44
 10.1237   5231.98
 10.133   5230.96
 10.1424   5253.68
 10.1517   5269.88
 10.1611   5299.19
 10.1705   5348.83
 10.1798   5396.46
 10.1892   5431.62
 10.1985   5507.05
 10.2079   5589.08
 10.2173   5657.96
 10.2266   5720.94
 10.236   5788.73
 10.2453   5819.4
 10.2547   5857.85
 10.2641   5954.65
 10.2734   6255.01
 10.2828   6936.07
 10.2921   8130.63
 10.3015   8808.09
 10.3109   8386.45
 10.3202   7063.45
 10.3296   6147.54
 10.3389   5604.98
 10.3483   5389.46
 10.3577   5313.38
 10.367   5279.97
 10.3764   5263.27
 10.3857   5265.73
 10.3951   5267.85
 10.4045   5279.04
 10.4138   5310.9
 10.4232   5321.77
 10.4325   5352.83
 10.4419   5387.63
 10.4513   5422.41
 10.4606   5456.82
 10.47   5491.4
 10.4793   5517.19
 10.4887   5511.88
 10.4981   5505.93
 10.5074   5502.95
 10.5168   5467.37
 10.5261   5428.14
 10.5355   5390.98
 10.5449   5362.02
 10.5542   5317.85
 10.5636   5280.73
 10.5729   5240.17
 10.5823   5195.73
 10.5917   5163.36
 10.601   5142.66
 10.6104   5124.26
 10.6197   5106.98
 10.6291   5098.24
 10.6385   5074.15
 10.6478   5058.22
 10.6572   5056.05
 10.6665   5043.6
 10.6759   5038.67
 10.6853   5041.4
 10.6946   5063.49
 10.704   5072.46
 10.7133   5087.35
 10.7227   5111.77
 10.7321   5130.36
 10.7414   5157.25
 10.7508   5179.06
 10.7601   5168.43
 10.7695   5174.56
 10.7789   5179.67
 10.7882   5177.11
 10.7976   5157.59
 10.8069   5169.14
 10.8163   5154.59
 10.8257   5143.17
 10.835   5135.46
 10.8444   5122.44
 10.8537   5107.48
 10.8631   5086.17
 10.8725   5060.59
 10.8818   5036.14
 10.8912   5003.27
 10.9005   4976.6
 10.9099   4960.88
 10.9193   4928.95
 10.9286   4913.14
 10.938   4898.48
 10.9473   4876.2
 10.9567   4849.11
 10.9661   4844.65
 10.9754   4844.31
 10.9848   4822.37
 10.9941   4809.35
 11.0035   4807.55
 11.0129   4816.48
 11.0222   4813.36
 11.0316   4804.65
 11.0409   4824.98
 11.0503   4820.51
 11.0597   4836.5
 11.069   4817.49
 11.0784   4830.16
 11.0877   4843.24
 11.0971   4861.74
 11.1065   4867.91
 11.1158   4900.31
 11.1252   4923.4
 11.1345   4954.27
 11.1439   4955.5
 11.1533   4977.33
 11.1626   4967.29
 11.172   4982.4
 11.1813   4966.24
 11.1907   4957.58
 11.2001   4918.47
 11.2094   4915.95
 11.2188   4882.94
 11.2281   4865.78
 11.2375   4829.47
 11.2469   4801.9
 11.2562   4770.12
 11.2656   4723.31
 11.2749   4692.56
 11.2843   4681.42
 11.2937   4663.56
 11.303   4644.16
 11.3124   4623.93
 11.3217   4615.85
 11.3311   4613.41
 11.3405   4589.14
 11.3498   4573.25
 11.3592   4568.68
 11.3685   4564.31
 11.3779   4557.55
 11.3873   4552.54
 11.3966   4534.48
 11.406   4534.33
 11.4153   4532.21
 11.4247   4518.78
 11.4341   4507.37
 11.4434   4507.37
 11.4528   4506.03
 11.4621   4495.33
 11.4715   4477.72
 11.4809   4482.72
 11.4902   4484.42
 11.4996   4474.1
 11.5089   4469.76
 11.5183   4470.18
 11.5277   4466.62
 11.537   4471.8
 11.5464   4457.23
 11.5557   4455.59
 11.5651   4445.71
 11.5745   4444.71
 11.5838   4436.65
 11.5932   4427.69
 11.6025   4427.68
 11.6119   4433.93
 11.6213   4434.42
 11.6306   4428.02
 11.64   4421.88
 11.6493   4415.13
 11.6587   4409.59
 11.6681   4395.85
 11.6774   4400.92
 11.6868   4387.47
 11.6961   4388.22
 11.7055   4380.07
 11.7149   4378.06
 11.7242   4374
 11.7336   4363.16
 11.7429   4373.3
 11.7523   4365.55
 11.7617   4366.23
 11.771   4370.42
 11.7804   4375.56
 11.7897   4374.65
 11.7991   4371.27
 11.8085   4378.69
 11.8178   4386.38
 11.8272   4392.5
 11.8365   4398.77
 11.8459   4422.2
 11.8553   4450.31
 11.8646   4488.82
 11.874   4576.15
 11.8833   4719.29
 11.8927   4944.29
 11.9021   5127.44
 11.9114   5091.5
 11.9208   4943.45
 11.9301   4793.61
 11.9395   4724.29
 11.9489   4675.03
 11.9582   4682.71
 11.9676   4676.21
 11.9769   4681.62
 11.9863   4662.1
 11.9957   4643.19
 12.005   4628
 12.0144   4601.87
 12.0237   4574.41
 12.0331   4541.5
 12.0425   4507.88
 12.0518   4482.27
 12.0612   4448.55
 12.0705   4422.02
 12.0799   4397.11
 12.0893   4376.82
 12.0986   4348.69
 12.108   4337.75
 12.1173   4308.84
 12.1267   4288.26
 12.1361   4262.89
 12.1454   4244.85
 12.1548   4225.64
 12.1641   4212.94
 12.1735   4205.74
 12.1829   4177.5
 12.1922   4163.32
 12.2016   4164.26
 12.2109   4162.27
 12.2203   4151.44
 12.2297   4130.61
 12.239   4134.97
 12.2484   4115.85
 12.2577   4119.48
 12.2671   4111.36
 12.2765   4123.61
 12.2858   4108.54
 12.2952   4109.28
 12.3045   4110.26
 12.3139   4106.24
 12.3233   4102.05
 12.3326   4109.95
 12.342   4111.62
 12.3513   4122.88
 12.3607   4129.18
 12.3701   4143.31
 12.3794   4154.56
 12.3888   4160
 12.3981   4162.48
 12.4075   4165.43
 12.4169   4167.39
 12.4262   4171.88
 12.4356   4172.59
 12.4449   4174.76
 12.4543   4153.79
 12.4637   4149.96
 12.473   4142.36
 12.4824   4133.76
 12.4917   4122.79
 12.5011   4110.72
 12.5105   4113.2
 12.5198   4101.25
 12.5292   4088.28
 12.5385   4080.06
 12.5479   4081.18
 12.5573   4079.3
 12.5666   4074.23
 12.576   4069.04
 12.5853   4075.05
 12.5947   4076.07
 12.6041   4084.03
 12.6134   4088.68
 12.6228   4097.29
 12.6321   4105.62
 12.6415   4120.19
 12.6509   4128.4
 12.6602   4163.59
 12.6696   4177.17
 12.6789   4192.08
 12.6883   4215.27
 12.6977   4238.71