File: docs/GuiliangJun25_tutorial_output/integrals/MA2b-00006_spotsmasked.chi
MA2b-00006.tif Azm= 0.00
2-Theta Angle (Degrees)
Intensity
       2500
 1.00702   7921.06
 1.01638   7862.06
 1.02574   7781.14
 1.0351   7718.94
 1.04446   7691.41
 1.05382   7693.82
 1.06318   7603.64
 1.07254   7569.12
 1.0819   7538.94
 1.09126   7507.63
 1.10062   7458.73
 1.10998   7398.81
 1.11934   7398.35
 1.1287   7338.26
 1.13806   7288.42
 1.14742   7279.07
 1.15678   7266.38
 1.16614   7196.42
 1.1755   7217.05
 1.18486   7212.82
 1.19422   7168.57
 1.20358   7153.56
 1.21294   7139.61
 1.2223   7143.68
 1.23166   7094.32
 1.24102   7125.36
 1.25038   7105.16
 1.25974   7118.85
 1.2691   7089.15
 1.27846   7102.55
 1.28782   7121.98
 1.29718   7116.59
 1.30654   7123.91
 1.3159   7122.37
 1.32526   7131.46
 1.33462   7159.34
 1.34398   7133.64
 1.35334   7151.23
 1.3627   7191.82
 1.37206   7191.75
 1.38142   7200.01
 1.39078   7210.98
 1.40014   7244.13
 1.4095   7303.31
 1.41886   7338.96
 1.42822   7358.65
 1.43758   7388.28
 1.44694   7433.81
 1.4563   7497.63
 1.46566   7548.93
 1.47502   7604.37
 1.48438   7652.24
 1.49374   7667.97
 1.5031   7715.49
 1.51246   7744.57
 1.52182   7779.62
 1.53118   7777.04
 1.54054   7771.06
 1.5499   7781.05
 1.55926   7732.65
 1.56862   7751.5
 1.57798   7715.65
 1.58734   7687.44
 1.5967   7667.34
 1.60606   7706.25
 1.61542   7685.8
 1.62478   7670.31
 1.63414   7672.45
 1.6435   7690.8
 1.65286   7669.99
 1.66222   7696.71
 1.67158   7695.62
 1.68094   7693.43
 1.6903   7698.9
 1.69966   7697.65
 1.70902   7720.74
 1.71838   7737.34
 1.72774   7724.77
 1.7371   7750.57
 1.74646   7753.55
 1.75582   7777.06
 1.76518   7771.85
 1.77454   7796.07
 1.7839   7840.43
 1.79326   7844.42
 1.80262   7868.86
 1.81198   7903.42
 1.82134   7919.47
 1.8307   7965.52
 1.84006   8008.09
 1.84942   8065.4
 1.85878   8081.18
 1.86814   8118.38
 1.8775   8160.33
 1.88686   8206.19
 1.89622   8245.25
 1.90558   8295.64
 1.91494   8307.17
 1.9243   8383.31
 1.93366   8471.9
 1.94302   8483.3
 1.95238   8542.88
 1.96174   8588.21
 1.9711   8640.81
 1.98046   8703.09
 1.98982   8767.9
 1.99918   8777.9
 2.00854   8834.92
 2.0179   8895.7
 2.02726   8945.72
 2.03662   9027.93
 2.04598   9102.12
 2.05534   9162.22
 2.0647   9263.89
 2.07406   9401.24
 2.08342   9648.94
 2.09278   9994.84
 2.10214   10691.7
 2.1115   12126.6
 2.12086   15071.7
 2.13022   20348.7
 2.13958   26622.2
 2.14894   30681.3
 2.1583   30017.6
 2.16766   26127.7
 2.17702   21821.4
 2.18638   18361.3
 2.19574   15860.1
 2.2051   14062.6
 2.21446   12892.1
 2.22382   12221.1
 2.23318   11842.3
 2.24254   11539.6
 2.2519   11236.7
 2.26126   10889.1
 2.27062   10624.2
 2.27998   10500.8
 2.28934   10450.2
 2.2987   10450.7
 2.30806   10463.1
 2.31742   10517.8
 2.32678   10571.5
 2.33614   10601.8
 2.3455   10625.3
 2.35486   10679.8
 2.36422   10741.7
 2.37358   10827.6
 2.38294   10874.8
 2.3923   10943.7
 2.40166   11008.3
 2.41102   11115.3
 2.42038   11152.7
 2.42974   11238.6
 2.4391   11302.6
 2.44846   11392.1
 2.45782   11433
 2.46718   11510.7
 2.47654   11597.1
 2.4859   11678
 2.49526   11752.3
 2.50462   11819.9
 2.51398   11884.5
 2.52334   11950.2
 2.5327   12035.5
 2.54206   12103.7
 2.55142   12154.9
 2.56078   12224
 2.57014   12297.4
 2.5795   12325.1
 2.58886   12422.4
 2.59822   12465.9
 2.60758   12508.3
 2.61694   12544.6
 2.6263   12590.2
 2.63566   12650.6
 2.64502   12673.6
 2.65438   12667
 2.66374   12717.5
 2.6731   12747.5
 2.68246   12758.8
 2.69182   12794.8
 2.70118   12829.1
 2.71054   12843.5
 2.7199   12852
 2.72926   12850.8
 2.73862   12842
 2.74798   12821.3
 2.75734   12809.7
 2.7667   12814.2
 2.77606   12799.7
 2.78542   12745.7
 2.79478   12752.8
 2.80414   12738.6
 2.8135   12714.5
 2.82286   12686.3
 2.83222   12661.8
 2.84158   12641.1
 2.85094   12617.5
 2.8603   12580.8
 2.86966   12540.1
 2.87902   12511.3
 2.88838   12479
 2.89774   12458.4
 2.9071   12414
 2.91646   12357
 2.92582   12310.3
 2.93518   12291.1
 2.94454   12262.1
 2.9539   12244.5
 2.96326   12153.1
 2.97262   12119.9
 2.98198   12087.4
 2.99134   12004.5
 3.0007   11967.5
 3.01006   11908.1
 3.01942   11881.6
 3.02878   11814.6
 3.03814   11771.7
 3.0475   11718.4
 3.05686   11648.6
 3.06622   11586.2
 3.07558   11517.1
 3.08494   11481.2
 3.0943   11442.2
 3.10366   11393
 3.11302   11350.4
 3.12238   11334.8
 3.13174   11296.1
 3.1411   11247.9
 3.15046   11203.1
 3.15982   11181.3
 3.16918   11134.6
 3.17854   11097
 3.1879   11100.3
 3.19726   11064
 3.20662   11051.2
 3.21598   10989.7
 3.22534   10983.3
 3.2347   10945.4
 3.24406   10898.6
 3.25342   10857
 3.26278   10870.4
 3.27214   10837.3
 3.2815   10814.1
 3.29086   10804.2
 3.30022   10797
 3.30958   10788.2
 3.31894   10744.2
 3.3283   10755.3
 3.33766   10745.8
 3.34702   10748.9
 3.35638   10729.4
 3.36574   10747.2
 3.3751   10730.5
 3.38446   10727.2
 3.39382   10714.9
 3.40318   10735.6
 3.41254   10736.4
 3.4219   10719.5
 3.43126   10717.2
 3.44062   10733.5
 3.44998   10752.6
 3.45934   10726.2
 3.4687   10744.5
 3.47806   10756.4
 3.48742   10760.4
 3.49678   10741.8
 3.50614   10764
 3.5155   10758.2
 3.52486   10745.1
 3.53422   10722.6
 3.54358   10774.3
 3.55294   10761.2
 3.5623   10737
 3.57166   10700.4
 3.58102   10768.2
 3.59038   10727.1
 3.59974   10685
 3.6091   10714.3
 3.61846   10762.4
 3.62782   10688.8
 3.63718   10660.3
 3.64654   10727.5
 3.6559   10741.2
 3.66526   10674.9
 3.67462   10583.3
 3.68398   10645.3
 3.69334   10588
 3.7027   10476.6
 3.71206   10395.4
 3.72142   10401.9
 3.73078   10275.2
 3.74014   10139.5
 3.7495   10137.1
 3.75886   10092.7
 3.76822   9951.97
 3.77758   9847.71
 3.78694   9887.92
 3.7963   9845.01
 3.80566   9656.24
 3.81502   9589.36
 3.82438   9652.64
 3.83374   9575.63
 3.8431   9390.09
 3.85246   9380.15
 3.86182   9366.43
 3.87118   9351.25
 3.88054   9220.22
 3.8899   9153.02
 3.89926   9127.92
 3.90862   9026.18
 3.91798   8927.7
 3.92734   9006.95
 3.9367   8896.93
 3.94606   8813.67
 3.95542   8816.08
 3.96478   8765.59
 3.97414   8690.41
 3.9835   8631.15
 3.99286   8562.81
 4.00222   8583.98
 4.01158   8527.81
 4.02094   8417.17
 4.0303   8442.57
 4.03966   8463.25
 4.04902   8322.06
 4.05838   8305.53
 4.06774   8312.01
 4.0771   8281.83
 4.08646   8178.79
 4.09582   8113.42
 4.10518   8157.56
 4.11454   8141.81
 4.1239   8020.95
 4.13326   8000.84
 4.14262   8046.75
 4.15198   8037
 4.16134   7918.76
 4.1707   7888.89
 4.18006   7926.52
 4.18942   7947.59
 4.19878   7839.1
 4.20814   7876.27
 4.2175   8000.09
 4.22686   7927.75
 4.23622   7860.53
 4.24558   8042.95
 4.25494   8230.48
 4.2643   8418.15
 4.27366   8924.19
 4.28302   9462.02
 4.29238   9816.02
 4.30174   9840.24
 4.3111   9674.09
 4.32046   9359.98
 4.32982   9029.54
 4.33918   8731.7
 4.34854   8548.37
 4.3579   8435.37
 4.36726   8237.09
 4.37662   8095.38
 4.38598   7983.26
 4.39534   7919.47
 4.4047   7840.56
 4.41406   7710.85
 4.42342   7648.96
 4.43278   7673.35
 4.44214   7594
 4.4515   7509.85
 4.46086   7514.82
 4.47022   7510.12
 4.47958   7441.62
 4.48894   7402.5
 4.4983   7366.3
 4.50766   7282.69
 4.51702   7172.59
 4.52638   7132.28
 4.53574   7102.07
 4.5451   7047.39
 4.55446   7001.39
 4.56382   6965.88
 4.57318   6956.05
 4.58254   6915.2
 4.5919   6860.78
 4.60126   6827
 4.61062   6825.31
 4.61998   6762.58
 4.62934   6752.63
 4.6387   6726.72
 4.64806   6700.1
 4.65742   6650.27
 4.66678   6660.94
 4.67614   6633.18
 4.6855   6612.67
 4.69486   6610.92
 4.70422   6612.03
 4.71358   6637.14
 4.72294   6688.51
 4.7323   6719.31
 4.74166   6770.84
 4.75102   6835.45
 4.76038   6902.57
 4.76974   7018.35
 4.7791   7203.82
 4.78846   7458.28
 4.79782   7804.74
 4.80718   8233.18
 4.81654   8704.38
 4.8259   9175.55
 4.83526   9510.31
 4.84462   9551.46
 4.85398   9199.7
 4.86334   8586.44
 4.8727   7962.09
 4.88206   7552.86
 4.89142   7344.89
 4.90078   7278.3
 4.91014   7372.19
 4.9195   7481.37
 4.92886   7646.11
 4.93822   7864.36
 4.94758   8163.62
 4.95694   8566.23
 4.9663   9084.51
 4.97566   9642.79
 4.98502   10151.4
 4.99438   10403.2
 5.00374   10286.5
 5.0131   9851.43
 5.02246   9143.42
 5.03182   8415.85
 5.04118   7804.95
 5.05054   7340.1
 5.0599   7023.69
 5.06926   6912.04
 5.07862   6951.04
 5.08798   7161.11
 5.09734   7789.31
 5.1067   9493.49
 5.11606   12790.2
 5.12542   21019.7
 5.13478   39386.3
 5.14414   51159
 5.1535   41459.1
 5.16286   25993.6
 5.17222   14749.1
 5.18158   9393.74
 5.19094   7318.01
 5.2003   6733.69
 5.20966   6466.6
 5.21902   6276.98
 5.22838   6142.3
 5.23774   6078.55
 5.2471   6023.46
 5.25646   5970.1
 5.26582   5925.89
 5.27518   5898.98
 5.28454   5891.44
 5.2939   5886.29
 5.30326   5868.38
 5.31262   5847.03
 5.32198   5854.2
 5.33134   5830.71
 5.3407   5815.05
 5.35006   5808.07
 5.35942   5814.53
 5.36878   5809.59
 5.37814   5808.1
 5.3875   5789.03
 5.39686   5811.14
 5.40622   5817.6
 5.41558   5820.25
 5.42494   5829.72
 5.4343   5846.78
 5.44366   5871.8
 5.45302   5890.68
 5.46238   5930.92
 5.47174   5986.72
 5.4811   6058.66
 5.49046   6137.53
 5.49982   6263.75
 5.50918   6485.64
 5.51854   6785.33
 5.5279   7223.89
 5.53726   7820.06
 5.54662   8507.02
 5.55598   9090.34
 5.56534   9430.03
 5.5747   9478.94
 5.58406   9270.49
 5.59342   8852.69
 5.60278   8419.46
 5.61214   7961.94
 5.6215   7582.85
 5.63086   7222.15
 5.64022   6952.7
 5.64958   6746.21
 5.65894   6557.07
 5.6683   6403.62
 5.67766   6302.21
 5.68702   6217.6
 5.69638   6134.88
 5.70574   6082.94
 5.7151   6049
 5.72446   6047.77
 5.73382   6040.19
 5.74318   6046.44
 5.75254   6088.69
 5.7619   6101.24
 5.77126   6106.57
 5.78062   6095.47
 5.78998   6067.58
 5.79934   6085.12
 5.8087   6087.49
 5.81806   6077.88
 5.82742   6130.04
 5.83678   6168.53
 5.84614   6218.1
 5.8555   6284.55
 5.86486   6388.67
 5.87422   6546.02
 5.88358   6733.16
 5.89294   6960.39
 5.9023   7401.72
 5.91166   8243.34
 5.92102   9840.34
 5.93038   12727.9
 5.93974   15091.9
 5.9491   15144.8
 5.95846   13269.1
 5.96782   11430.5
 5.97718   10487.2
 5.98654   10052.8
 5.9959   9568.04
 6.00526   9066.9
 6.01462   8545.88
 6.02398   8017.41
 6.03334   7524.3
 6.0427   7144.73
 6.05206   6846.31
 6.06142   6594.21
 6.07078   6400.34
 6.08014   6294.38
 6.0895   6215.68
 6.09886   6119.92
 6.10822   6037.22
 6.11758   6005.08
 6.12694   5986.03
 6.1363   5956.83
 6.14566   5920.43
 6.15502   5910.07
 6.16438   5910.75
 6.17374   5891.7
 6.1831   5887.02
 6.19246   5894.83
 6.20182   5905.7
 6.21118   5884.42
 6.22054   5883.55
 6.2299   5905.56
 6.23926   5889
 6.24862   5884.21
 6.25798   5907.53
 6.26734   5902.11
 6.2767   5922.03
 6.28606   5893.76
 6.29542   5913.86
 6.30478   5932.56
 6.31414   5929.81
 6.3235   5917.57
 6.33286   5932.91
 6.34222   5946.87
 6.35158   5953.13
 6.36094   5930.93
 6.3703   5952.9
 6.37966   5948.75
 6.38902   5979.43
 6.39838   5974.16
 6.40774   6007.52
 6.4171   6031.08
 6.42646   6034.85
 6.43582   6058.78
 6.44518   6095.08
 6.45454   6076.46
 6.4639   6081.57
 6.47326   6058.61
 6.48262   6045.26
 6.49198   6040.65
 6.50134   6009.1
 6.5107   6058.62
 6.52006   6088.61
 6.52942   6070.63
 6.53878   6094.8
 6.54814   6127.41
 6.5575   6142.61
 6.56686   6157.44
 6.57622   6157.85
 6.58558   6193.11
 6.59494   6220.48
 6.6043   6234.08
 6.61366   6234.24
 6.62302   6233.81
 6.63238   6282.79
 6.64174   6281.02
 6.6511   6319.67
 6.66046   6369.49
 6.66982   6351.16
 6.67918   6376.64
 6.68854   6371.72
 6.6979   6392.25
 6.70726   6458.24
 6.71662   6468.1
 6.72598   6499.3
 6.73534   6570.47
 6.7447   6596.13
 6.75406   6629.79
 6.76342   6644.66
 6.77278   6704.85
 6.78214   6692.41
 6.7915   6711.74
 6.80086   6707.52
 6.81022   6735.76
 6.81958   6800.56
 6.82894   6802.72
 6.8383   6842.82
 6.84766   6935.65
 6.85702   6970.25
 6.86638   7036.45
 6.87574   7169.54
 6.8851   7306.55
 6.89446   7469.8
 6.90382   7666.7
 6.91318   7873.82
 6.92254   8104.45
 6.9319   8236.32
 6.94126   8302.62
 6.95062   8365.58
 6.95998   8354.99
 6.96934   8188.67
 6.9787   8132.97
 6.98806   8044.68
 6.99742   7923.24
 7.00678   7828.13
 7.01614   7736.78
 7.0255   7662.15
 7.03486   7585.36
 7.04422   7533.84
 7.05358   7482.01
 7.06294   7494.45
 7.0723   7400.51
 7.08166   7229.95
 7.09102   7070.3
 7.10038   6989.69
 7.10974   6888.51
 7.1191   6842.58
 7.12846   6796.28
 7.13782   6784.78
 7.14718   6754.81
 7.15654   6727.66
 7.1659   6711.28
 7.17526   6716.31
 7.18462   6694.46
 7.19398   6684.67
 7.20334   6662.27
 7.2127   6677.87
 7.22206   6644.57
 7.23142   6646.66
 7.24078   6664.81
 7.25014   6663.41
 7.2595   6678.73
 7.26886   6673.96
 7.27822   6692.46
 7.28758   6699.24
 7.29694   6671.56
 7.3063   6678.78
 7.31566   6698.09
 7.32502   6730.16
 7.33438   6755.78
 7.34374   6804.62
 7.3531   6830.56
 7.36246   6854.31
 7.37182   6890.13
 7.38118   6910.7
 7.39054   6936.51
 7.3999   6991.33
 7.40926   7038.94
 7.41862   7104.85
 7.42798   7191.18
 7.43734   7273.19
 7.4467   7333
 7.45606   7415.79
 7.46542   7442.96
 7.47478   7455.45
 7.48414   7418.88
 7.4935   7362.26
 7.50286   7316.57
 7.51222   7250.22
 7.52158   7180.99
 7.53094   7110.95
 7.5403   7080.34
 7.54966   7037.82
 7.55902   6982.69
 7.56838   6953.27
 7.57774   6914.84
 7.5871   6866.52
 7.59646   6837.06
 7.60582   6752.32
 7.61518   6692.46
 7.62454   6575.91
 7.6339   6490.14
 7.64326   6384.96
 7.65262   6317.63
 7.66198   6260.02
 7.67134   6216.92
 7.6807   6182.06
 7.69006   6141.28
 7.69942   6106.83
 7.70878   6077.78
 7.71814   6032.52
 7.7275   6014.33
 7.73686   5998.6
 7.74622   5985.57
 7.75558   5934.06
 7.76494   5923.6
 7.7743   5913.97
 7.78366   5884.23
 7.79302   5863.83
 7.80238   5829.65
 7.81174   5824.92
 7.8211   5808.66
 7.83046   5775.85
 7.83982   5762.22
 7.84918   5770.25
 7.85854   5735.59
 7.8679   5707.31
 7.87726   5716.07
 7.88662   5705.73
 7.89598   5683.49
 7.90534   5666.52
 7.9147   5647.75
 7.92406   5641.57
 7.93342   5636.7
 7.94278   5602.31
 7.95214   5606.02
 7.9615   5608.86
 7.97086   5582.17
 7.98022   5555.53
 7.98958   5579.63
 7.99894   5568.98
 8.0083   5545.79
 8.01766   5527.11
 8.02702   5524.18
 8.03638   5528
 8.04574   5505.2
 8.0551   5498.91
 8.06446   5519.32
 8.07382   5564.43
 8.08318   5561.45
 8.09254   5570.59
 8.1019   5637.66
 8.11126   5661.37
 8.12062   5670.14
 8.12998   5697.64
 8.13934   5686.46
 8.1487   5728.91
 8.15806   5716.03
 8.16742   5727.31
 8.17678   5764.98
 8.18614   5837.63
 8.1955   5882.48
 8.20486   5995
 8.21422   6138.35
 8.22358   6312.22
 8.23294   6482.7
 8.2423   6668.87
 8.25166   6884.39
 8.26102   7082.14
 8.27038   7293.1
 8.27974   7494.85
 8.2891   7623.19
 8.29846   7662.14
 8.30782   7558.94
 8.31718   7335.89
 8.32654   7008.88
 8.3359   6682.17
 8.34526   6360.63
 8.35462   6127.8
 8.36398   6000.63
 8.37334   6069.43
 8.3827   6440.13
 8.39206   7177.51
 8.40142   8196.7
 8.41078   8521.38
 8.42014   7838.7
 8.4295   6673.54
 8.43886   6133.45
 8.44822   5839.54
 8.45758   5744.29
 8.46694   5756.42
 8.4763   5798.36
 8.48566   5858.34
 8.49502   5958.65
 8.50438   6076.91
 8.51374   6202.73
 8.5231   6360.82
 8.53246   6532.64
 8.54182   6711.43
 8.55118   6900.6
 8.56054   7054.18
 8.5699   7170.65
 8.57926   7259.45
 8.58862   7254.27
 8.59798   7176.55
 8.60734   7046.09
 8.6167   6866.5
 8.62606   6650.99
 8.63542   6463.33
 8.64478   6289.34
 8.65414   6106.35
 8.6635   5963.12
 8.67286   5833.37
 8.68222   5712.7
 8.69158   5629.8
 8.70094   5556.89
 8.7103   5494.33
 8.71966   5445.96
 8.72902   5399.53
 8.73838   5362.67
 8.74774   5311.98
 8.7571   5293.03
 8.76646   5271.53
 8.77582   5245.59
 8.78518   5217.73
 8.79454   5201.97
 8.8039   5192.52
 8.81326   5186.06
 8.82262   5153.93
 8.83198   5127.78
 8.84134   5108.82
 8.8507   5076.6
 8.86006   5054.57
 8.86942   5033.41
 8.87878   5011.04
 8.88814   4986
 8.8975   4978.05
 8.90686   4969.66
 8.91622   4973.68
 8.92558   4971.86
 8.93494   4959.74
 8.9443   4959.98
 8.95366   4977.68
 8.96302   4956.58
 8.97238   4964.68
 8.98174   4964.93
 8.9911   4966.13
 9.00046   4955.35
 9.00982   4947.02
 9.01918   4943.23
 9.02854   4929.17
 9.0379   4931.92
 9.04726   4923.1
 9.05662   4911.47
 9.06598   4911.91
 9.07534   4913.57
 9.0847   4912.07
 9.09406   4913.09
 9.10342   4930.44
 9.11278   4940.82
 9.12214   4961.44
 9.1315   4974.65
 9.14086   4986.96
 9.15022   5001.44
 9.15958   5029.57
 9.16894   5052.16
 9.1783   5072.05
 9.18766   5099.09
 9.19702   5130.23
 9.20638   5165.94
 9.21574   5207.95
 9.2251   5223.99
 9.23446   5245.19
 9.24382   5283.95
 9.25318   5318.22
 9.26254   5352.81
 9.2719   5399.25
 9.28126   5446.67
 9.29062   5505.02
 9.29998   5529.55
 9.30934   5585.96
 9.3187   5628.1
 9.32806   5669.31
 9.33742   5687.71
 9.34678   5680.14
 9.35614   5669.19
 9.3655   5644.62
 9.37486   5582.37
 9.38422   5496.6
 9.39358   5430.13
 9.40294   5354.93
 9.4123   5293.76
 9.42166   5234.38
 9.43102   5193.3
 9.44038   5156.04
 9.44974   5136.09
 9.4591   5106.51
 9.46846   5098.04
 9.47782   5110.17
 9.48718   5112.28
 9.49654   5110.99
 9.5059   5118.19
 9.51526   5133.49
 9.52462   5130.38
 9.53398   5142.3
 9.54334   5140.47
 9.5527   5176.46
 9.56206   5192.02
 9.57142   5205.61
 9.58078   5230.01
 9.59014   5275.5
 9.5995   5309.9
 9.60886   5332.23
 9.61822   5352.22
 9.62758   5365.84
 9.63694   5362.62
 9.6463   5370.35
 9.65566   5389.44
 9.66502   5416.7
 9.67438   5432.1
 9.68374   5456.61
 9.6931   5459.27
 9.70246   5456.6
 9.71182   5413.99
 9.72118   5354.04
 9.73054   5289.94
 9.7399   5242.98
 9.74926   5199.2
 9.75862   5142.94
 9.76798   5122.36
 9.77734   5140.81
 9.7867   5152.1
 9.79606   5167.15
 9.80542   5226.99
 9.81478   5357.37
 9.82414   5651.47
 9.8335   6402.53
 9.84286   8057.66
 9.85222   10432.8
 9.86158   12308.4
 9.87094   11437.6
 9.8803   9023.33
 9.88966   7047
 9.89902   6033.4
 9.90838   5586.42
 9.91774   5424.57
 9.9271   5351.6
 9.93646   5333.51
 9.94582   5336.28
 9.95518   5319.05
 9.96454   5342.27
 9.9739   5334.55
 9.98326   5341.5
 9.99262   5345.73
 10.002   5347.96
 10.0113   5329.11
 10.0207   5318.91
 10.0301   5290.13
 10.0394   5265.51
 10.0488   5254.37
 10.0581   5223.16
 10.0675   5223.97
 10.0769   5205.26
 10.0862   5193.97
 10.0956   5189.35
 10.1049   5194.35
 10.1143   5186.11
 10.1237   5192.45
 10.133   5208.5
 10.1424   5218.85
 10.1517   5244.39
 10.1611   5260.07
 10.1705   5309.83
 10.1798   5353.02
 10.1892   5386.28
 10.1985   5462.51
 10.2079   5522.87
 10.2173   5587.4
 10.2266   5618.54
 10.236   5688.05
 10.2453   5706.37
 10.2547   5743.84
 10.2641   5822.94
 10.2734   6114.06
 10.2828   6803.87
 10.2921   7997.72
 10.3015   8708.52
 10.3109   8292.01
 10.3202   6982.47
 10.3296   6083.19
 10.3389   5537.91
 10.3483   5327.03
 10.3577   5257.07
 10.367   5220.54
 10.3764   5204.06
 10.3857   5219.01
 10.3951   5207.17
 10.4045   5218.3
 10.4138   5225.6
 10.4232   5254.92
 10.4325   5270.13
 10.4419   5307.94
 10.4513   5338.28
 10.4606   5362.81
 10.47   5404.53
 10.4793   5424.77
 10.4887   5419.29
 10.4981   5433.04
 10.5074   5422.66
 10.5168   5386.74
 10.5261   5359.09
 10.5355   5353.84
 10.5449   5311.59
 10.5542   5263.49
 10.5636   5231.06
 10.5729   5197.34
 10.5823   5162.92
 10.5917   5140.65
 10.601   5116.48
 10.6104   5099.05
 10.6197   5075.21
 10.6291   5065.07
 10.6385   5050.14
 10.6478   5039.52
 10.6572   5034.49
 10.6665   5021.54
 10.6759   5026.67
 10.6853   5020.1
 10.6946   5031.1
 10.704   5039.01
 10.7133   5052.94
 10.7227   5064.28
 10.7321   5098.05
 10.7414   5111.91
 10.7508   5137.07
 10.7601   5131.14
 10.7695   5148.76
 10.7789   5153.83
 10.7882   5145.25
 10.7976   5135.99
 10.8069   5117.37
 10.8163   5116.1
 10.8257   5113.43
 10.835   5092.02
 10.8444   5081.33
 10.8537   5062.05
 10.8631   5047.87
 10.8725   5024.85
 10.8818   5000.63
 10.8912   4962.53
 10.9005   4950.45
 10.9099   4923.87
 10.9193   4897.61
 10.9286   4878.82
 10.938   4867.71
 10.9473   4847.75
 10.9567   4831.31
 10.9661   4814.77
 10.9754   4802.07
 10.9848   4792.79
 10.9941   4788.39
 11.0035   4772.31
 11.0129   4796.14
 11.0222   4786.39
 11.0316   4776.2
 11.0409   4788.41
 11.0503   4792.21
 11.0597   4807.74
 11.069   4794.66
 11.0784   4803.41
 11.0877   4819.89
 11.0971   4847.62
 11.1065   4867.54
 11.1158   4885.09
 11.1252   4908.01
 11.1345   4940.36
 11.1439   4958.4
 11.1533   4961.59
 11.1626   4957.67
 11.172   4944.66
 11.1813   4940.16
 11.1907   4921.99
 11.2001   4893.56
 11.2094   4885.8
 11.2188   4859.74
 11.2281   4834.82
 11.2375   4798.79
 11.2469   4779.39
 11.2562   4749.58
 11.2656   4723.82
 11.2749   4688.18
 11.2843   4665.12
 11.2937   4648.88
 11.303   4628.18
 11.3124   4606.01
 11.3217   4594.09
 11.3311   4592.05
 11.3405   4577.44
 11.3498   4552.52
 11.3592   4544.35
 11.3685   4537.3
 11.3779   4531.56
 11.3873   4525.11
 11.3966   4511.49
 11.406   4519.81
 11.4153   4503.32
 11.4247   4496.83
 11.4341   4477.81
 11.4434   4475.75
 11.4528   4483.94
 11.4621   4472.1
 11.4715   4467.74
 11.4809   4469.32
 11.4902   4464.73
 11.4996   4457.77
 11.5089   4455.49
 11.5183   4446.79
 11.5277   4447.54
 11.537   4436.35
 11.5464   4420.81
 11.5557   4414.89
 11.5651   4413.66
 11.5745   4419.58
 11.5838   4403.9
 11.5932   4407.52
 11.6025   4402.03
 11.6119   4401.36
 11.6213   4391.59
 11.6306   4389.12
 11.64   4386.78
 11.6493   4393.32
 11.6587   4385.61
 11.6681   4373.06
 11.6774   4359.21
 11.6868   4356.18
 11.6961   4360.83
 11.7055   4352.03
 11.7149   4344.41
 11.7242   4342.89
 11.7336   4351.22
 11.7429   4338.48
 11.7523   4333.75
 11.7617   4338.7
 11.771   4347.18
 11.7804   4341.67
 11.7897   4334.37
 11.7991   4337.52
 11.8085   4348.77
 11.8178   4359.07
 11.8272   4355.03
 11.8365   4370.4
 11.8459   4400.22
 11.8553   4420.79
 11.8646   4448.41
 11.874   4529.23
 11.8833   4679.32
 11.8927   4901.42
 11.9021   5069.84
 11.9114   5034.77
 11.9208   4886.46
 11.9301   4727.16
 11.9395   4652.25
 11.9489   4613.03
 11.9582   4617.74
 11.9676   4628.3
 11.9769   4621.54
 11.9863   4606.74
 11.9957   4603.26
 12.005   4584.55
 12.0144   4557.27
 12.0237   4539.59
 12.0331   4504.6
 12.0425   4487.03
 12.0518   4447.67
 12.0612   4430.49
 12.0705   4408.76
 12.0799   4390.18
 12.0893   4369.3
 12.0986   4347.47
 12.108   4328.95
 12.1173   4311.61
 12.1267   4289.13
 12.1361   4265.08
 12.1454   4236.06
 12.1548   4217.06
 12.1641   4195.71
 12.1735   4180.45
 12.1829   4167.24
 12.1922   4144.58
 12.2016   4137.79
 12.2109   4130.17
 12.2203   4128.35
 12.2297   4116.34
 12.239   4103.58
 12.2484   4102.5
 12.2577   4088.58
 12.2671   4094.75
 12.2765   4098.03
 12.2858   4088.57
 12.2952   4084.13
 12.3045   4082.54
 12.3139   4085.27
 12.3233   4089.24
 12.3326   4078.14
 12.342   4091.25
 12.3513   4089.12
 12.3607   4098.41
 12.3701   4115.68
 12.3794   4115.98
 12.3888   4120.16
 12.3981   4133.55
 12.4075   4143.55
 12.4169   4143.09
 12.4262   4140.29
 12.4356   4132.55
 12.4449   4130.84
 12.4543   4140.38
 12.4637   4125.76
 12.473   4125.02
 12.4824   4125.84
 12.4917   4111.87
 12.5011   4095.95
 12.5105   4096.46
 12.5198   4088.59
 12.5292   4078.06
 12.5385   4082.26
 12.5479   4064.09
 12.5573   4061.68
 12.5666   4057.79
 12.576   4062.26
 12.5853   4064.1
 12.5947   4071.36
 12.6041   4081.52
 12.6134   4091.03
 12.6228   4098.47
 12.6321   4121
 12.6415   4126.4
 12.6509   4139.05
 12.6602   4164.49
 12.6696   4177.65
 12.6789   4194.11
 12.6883   4215.41
 12.6977   4227.9