File: docs/GuiliangJun25_tutorial_output/integrals/MA2b-00002_base.chi
MA2b-00002.tif Azm= 0.00
2-Theta Angle (Degrees)
Intensity
       2500
 1.00702   7895.89
 1.01638   7821.77
 1.02574   7766.59
 1.0351   7738.86
 1.04446   7673.27
 1.05382   7642.52
 1.06318   7574.36
 1.07254   7523.6
 1.0819   7516.48
 1.09126   7462.06
 1.10062   7430.56
 1.10998   7367.41
 1.11934   7309.18
 1.1287   7307.71
 1.13806   7263.54
 1.14742   7231.82
 1.15678   7224.66
 1.16614   7218.58
 1.1755   7185.91
 1.18486   7167.34
 1.19422   7153.61
 1.20358   7130.47
 1.21294   7135.23
 1.2223   7130.54
 1.23166   7096.29
 1.24102   7088.26
 1.25038   7086.71
 1.25974   7101.33
 1.2691   7088.81
 1.27846   7079.43
 1.28782   7106.51
 1.29718   7086.24
 1.30654   7102.51
 1.3159   7108.41
 1.32526   7119.86
 1.33462   7166.89
 1.34398   7153.32
 1.35334   7148.46
 1.3627   7150.36
 1.37206   7196.64
 1.38142   7193.39
 1.39078   7241.53
 1.40014   7239.39
 1.4095   7255.11
 1.41886   7299.37
 1.42822   7339.97
 1.43758   7386.36
 1.44694   7430.74
 1.4563   7482.4
 1.46566   7556.34
 1.47502   7616.15
 1.48438   7636.12
 1.49374   7683.26
 1.5031   7719.52
 1.51246   7761.29
 1.52182   7776.37
 1.53118   7797.17
 1.54054   7745.34
 1.5499   7731.94
 1.55926   7733.84
 1.56862   7698.83
 1.57798   7721.53
 1.58734   7697.78
 1.5967   7684.89
 1.60606   7687.68
 1.61542   7682.61
 1.62478   7671.78
 1.63414   7685.52
 1.6435   7680.22
 1.65286   7689.64
 1.66222   7683.76
 1.67158   7694.88
 1.68094   7696.98
 1.6903   7679.24
 1.69966   7677.96
 1.70902   7706.6
 1.71838   7728.74
 1.72774   7696.17
 1.7371   7702.41
 1.74646   7696.6
 1.75582   7719.52
 1.76518   7740.81
 1.77454   7751.97
 1.7839   7794.93
 1.79326   7818.22
 1.80262   7836.99
 1.81198   7895.22
 1.82134   7932.72
 1.8307   7956.47
 1.84006   7990.98
 1.84942   8004.45
 1.85878   8084.89
 1.86814   8105.82
 1.8775   8143.68
 1.88686   8170.44
 1.89622   8204.04
 1.90558   8259.68
 1.91494   8309.98
 1.9243   8379.86
 1.93366   8438.48
 1.94302   8463.47
 1.95238   8513.69
 1.96174   8577.08
 1.9711   8711.09
 1.98046   8704.49
 1.98982   8702.75
 1.99918   8723.19
 2.00854   8781.94
 2.0179   8864.83
 2.02726   8900.03
 2.03662   8963.99
 2.04598   9002.27
 2.05534   9067.51
 2.0647   9131.85
 2.07406   9215.89
 2.08342   9342.68
 2.09278   9513.48
 2.10214   9776.04
 2.1115   10224.7
 2.12086   11063.5
 2.13022   12779.5
 2.13958   15497.7
 2.14894   18954.4
 2.1583   21946.5
 2.16766   23966.9
 2.17702   24541.9
 2.18638   23522.9
 2.19574   21371.2
 2.2051   18817.7
 2.21446   16752.7
 2.22382   15338
 2.23318   14454.5
 2.24254   13669.5
 2.2519   12831.1
 2.26126   11898.5
 2.27062   11200.9
 2.27998   10788.7
 2.28934   10571.2
 2.2987   10510.8
 2.30806   10503.2
 2.31742   10513.1
 2.32678   10549
 2.33614   10589.2
 2.3455   10646.2
 2.35486   10694
 2.36422   10742.5
 2.37358   10802.7
 2.38294   10870.1
 2.3923   10934.1
 2.40166   11004.1
 2.41102   11066.3
 2.42038   11153.4
 2.42974   11223.4
 2.4391   11282
 2.44846   11350.2
 2.45782   11428.7
 2.46718   11481.7
 2.47654   11581
 2.4859   11651.1
 2.49526   11722.8
 2.50462   11792.5
 2.51398   11862.4
 2.52334   11969
 2.5327   11999.9
 2.54206   12075.6
 2.55142   12145.7
 2.56078   12208.8
 2.57014   12300.5
 2.5795   12348.5
 2.58886   12406.8
 2.59822   12457.4
 2.60758   12478.4
 2.61694   12554.9
 2.6263   12599.8
 2.63566   12643.7
 2.64502   12659.7
 2.65438   12705.6
 2.66374   12754.7
 2.6731   12768.6
 2.68246   12767.3
 2.69182   12821.4
 2.70118   12843.4
 2.71054   12866.7
 2.7199   12869.7
 2.72926   12875.8
 2.73862   12866
 2.74798   12876.2
 2.75734   12832.9
 2.7667   12833.3
 2.77606   12831.3
 2.78542   12792.4
 2.79478   12767.8
 2.80414   12748.4
 2.8135   12738.2
 2.82286   12688.4
 2.83222   12666.9
 2.84158   12620.1
 2.85094   12600.1
 2.8603   12572.8
 2.86966   12532.7
 2.87902   12514.7
 2.88838   12469.6
 2.89774   12424.2
 2.9071   12420.4
 2.91646   12366.7
 2.92582   12336.7
 2.93518   12292.4
 2.94454   12261.9
 2.9539   12222.7
 2.96326   12168
 2.97262   12116
 2.98198   12076.5
 2.99134   12002.9
 3.0007   11951.9
 3.01006   11917.2
 3.01942   11869.1
 3.02878   11832.5
 3.03814   11762.1
 3.0475   11719.6
 3.05686   11655.8
 3.06622   11573.7
 3.07558   11544.6
 3.08494   11497.1
 3.0943   11440.2
 3.10366   11379.1
 3.11302   11350.3
 3.12238   11320.9
 3.13174   11275.5
 3.1411   11232.1
 3.15046   11171.8
 3.15982   11156
 3.16918   11110.1
 3.17854   11067.8
 3.1879   11059.5
 3.19726   11043.1
 3.20662   11011.2
 3.21598   10959.2
 3.22534   10958.9
 3.2347   10906.9
 3.24406   10871.1
 3.25342   10855.5
 3.26278   10833.5
 3.27214   10812.1
 3.2815   10772.7
 3.29086   10753.2
 3.30022   10756
 3.30958   10753.9
 3.31894   10713.6
 3.3283   10729.1
 3.33766   10722.6
 3.34702   10709
 3.35638   10690.7
 3.36574   10724.5
 3.3751   10707.2
 3.38446   10687.5
 3.39382   10694.9
 3.40318   10707.8
 3.41254   10715.5
 3.4219   10706.8
 3.43126   10712.8
 3.44062   10736.7
 3.44998   10752.8
 3.45934   10739.2
 3.4687   10764.6
 3.47806   10788.1
 3.48742   10764.3
 3.49678   10739.3
 3.50614   10783.2
 3.5155   10804.8
 3.52486   10740.8
 3.53422   10761.4
 3.54358   10779.9
 3.55294   10788.4
 3.5623   10768
 3.57166   10789.3
 3.58102   10825.4
 3.59038   10843.5
 3.59974   10812.1
 3.6091   10864.8
 3.61846   10892.1
 3.62782   10866.6
 3.63718   10865.9
 3.64654   10952.7
 3.6559   11021.4
 3.66526   10971.2
 3.67462   10994.2
 3.68398   11198.7
 3.69334   11211.8
 3.7027   11194.7
 3.71206   11274.7
 3.72142   11411.2
 3.73078   11314.9
 3.74014   11366.4
 3.7495   11457
 3.75886   11486.9
 3.76822   11659.3
 3.77758   11621.5
 3.78694   11749.4
 3.7963   12031.4
 3.80566   11918.6
 3.81502   11953.7
 3.82438   12481.5
 3.83374   12530.2
 3.8431   12724.5
 3.85246   13279.8
 3.86182   13717.9
 3.87118   14046.4
 3.88054   14735.1
 3.8899   15431.5
 3.89926   16608.5
 3.90862   18206.4
 3.91798   22482.2
 3.92734   31664.6
 3.9367   50437.1
 3.94606   72832.9
 3.95542   80773.4
 3.96478   95287.5
 3.97414   120766
 3.9835   101432
 3.99286   80206.8
 4.00222   47534.2
 4.01158   31972.1
 4.02094   20857.4
 4.0303   17593.7
 4.03966   15571.5
 4.04902   13845.2
 4.05838   13051.9
 4.06774   12636.4
 4.0771   12201.5
 4.08646   12127.1
 4.09582   11693.5
 4.10518   11454.3
 4.11454   11415
 4.1239   10946.5
 4.13326   10663.4
 4.14262   10705.4
 4.15198   10422.7
 4.16134   10172.2
 4.1707   10043.5
 4.18006   9966.11
 4.18942   9770.76
 4.19878   9582.76
 4.20814   9429.42
 4.2175   9399.2
 4.22686   9144.26
 4.23622   8979.8
 4.24558   8994.79
 4.25494   8857.15
 4.2643   8856.64
 4.27366   8887.87
 4.28302   8867.61
 4.29238   8975.51
 4.30174   9069.78
 4.3111   9082.48
 4.32046   9205.1
 4.32982   9217.09
 4.33918   9198.7
 4.34854   9278.67
 4.3579   9249.84
 4.36726   9094.46
 4.37662   8943.05
 4.38598   8730.69
 4.39534   8554.75
 4.4047   8394.16
 4.41406   8159.1
 4.42342   8027.15
 4.43278   7988.18
 4.44214   7846.72
 4.4515   7752.79
 4.46086   7725.44
 4.47022   7690.83
 4.47958   7640.85
 4.48894   7590.77
 4.4983   7527.9
 4.50766   7393.23
 4.51702   7236.25
 4.52638   7155.03
 4.53574   7102.05
 4.5451   7017.84
 4.55446   6967.31
 4.56382   6916.98
 4.57318   6895.26
 4.58254   6859.02
 4.5919   6822.21
 4.60126   6775.6
 4.61062   6786.84
 4.61998   6728.63
 4.62934   6705.6
 4.6387   6688.64
 4.64806   6655.05
 4.65742   6611.62
 4.66678   6602.29
 4.67614   6590
 4.6855   6579.14
 4.69486   6590.1
 4.70422   6610.17
 4.71358   6699.82
 4.72294   6831.78
 4.7323   6964.25
 4.74166   7107.92
 4.75102   7272.35
 4.76038   7422.15
 4.76974   7685.02
 4.7791   8076.76
 4.78846   8555.09
 4.79782   9005.83
 4.80718   9321.24
 4.81654   9328.69
 4.8259   9087.69
 4.83526   8651.88
 4.84462   8162.46
 4.85398   7706.28
 4.86334   7328.58
 4.8727   7115.41
 4.88206   7103.53
 4.89142   7221.01
 4.90078   7511.21
 4.91014   7848.95
 4.9195   8111.36
 4.92886   8312.34
 4.93822   8391.9
 4.94758   8458.24
 4.95694   8461.2
 4.9663   8444.39
 4.97566   8418.6
 4.98502   8358.64
 4.99438   8211.65
 5.00374   7946
 5.0131   7630.75
 5.02246   7295.96
 5.03182   6961.09
 5.04118   6714.04
 5.05054   6555.53
 5.0599   6474.72
 5.06926   6513.51
 5.07862   6608.55
 5.08798   6912.72
 5.09734   7592.59
 5.1067   9264.52
 5.11606   12498.6
 5.12542   20590.6
 5.13478   38877.5
 5.14414   50875.2
 5.1535   41153.1
 5.16286   25785.5
 5.17222   14607.2
 5.18158   9280.29
 5.19094   7229.9
 5.2003   6652.66
 5.20966   6382.25
 5.21902   6204.35
 5.22838   6104.45
 5.23774   6034.2
 5.2471   5976.93
 5.25646   5941.29
 5.26582   5916.07
 5.27518   5893.51
 5.28454   5861.7
 5.2939   5861.61
 5.30326   5860.23
 5.31262   5853.28
 5.32198   5838.07
 5.33134   5828.46
 5.3407   5859.51
 5.35006   5840.6
 5.35942   5816.04
 5.36878   5829.57
 5.37814   5863.33
 5.3875   5817.28
 5.39686   5848.22
 5.40622   5892.83
 5.41558   5904.98
 5.42494   5913.29
 5.4343   5973.27
 5.44366   6023.52
 5.45302   6087.42
 5.46238   6141.15
 5.47174   6275.75
 5.4811   6477.96
 5.49046   6723.08
 5.49982   7062.5
 5.50918   7657.46
 5.51854   8555.9
 5.5279   9756.78
 5.53726   11324.6
 5.54662   13059.3
 5.55598   14420.5
 5.56534   14929.4
 5.5747   14577.2
 5.58406   13664.3
 5.59342   12522.8
 5.60278   11823.6
 5.61214   10340.7
 5.6215   9374.29
 5.63086   8698.2
 5.64022   8104.97
 5.64958   7646.8
 5.65894   7261.91
 5.6683   6926.7
 5.67766   6610.89
 5.68702   6428.47
 5.69638   6298.14
 5.70574   6163.52
 5.7151   6090.8
 5.72446   6035.03
 5.73382   6024.59
 5.74318   6001.43
 5.75254   5983.07
 5.7619   6003.41
 5.77126   5994.3
 5.78062   5956.67
 5.78998   5903.8
 5.79934   5912.3
 5.8087   5914.55
 5.81806   5855.65
 5.82742   5861.21
 5.83678   5896.65
 5.84614   5934.5
 5.8555   5921.91
 5.86486   5989.32
 5.87422   6057.21
 5.88358   6145.51
 5.89294   6255.9
 5.9023   6544.54
 5.91166   7168.58
 5.92102   8481.34
 5.93038   11079.2
 5.93974   13115.8
 5.9491   12807.4
 5.95846   10651.2
 5.96782   8590.42
 5.97718   7606.11
 5.98654   7274.24
 5.9959   7059.95
 6.00526   6905.28
 6.01462   6767.76
 6.02398   6627.35
 6.03334   6447.32
 6.0427   6291.29
 6.05206   6202.37
 6.06142   6096.11
 6.07078   5996.09
 6.08014   5949.88
 6.0895   5921.9
 6.09886   5873.26
 6.10822   5841.61
 6.11758   5824.69
 6.12694   5819.32
 6.1363   5804.99
 6.14566   5790.24
 6.15502   5787.28
 6.16438   5798.19
 6.17374   5786.12
 6.1831   5781.26
 6.19246   5801.64
 6.20182   5822.47
 6.21118   5795.49
 6.22054   5784.88
 6.2299   5822.9
 6.23926   5829.72
 6.24862   5821.88
 6.25798   5831.23
 6.26734   5827.97
 6.2767   5863.34
 6.28606   5838.99
 6.29542   5858.46
 6.30478   5875.18
 6.31414   5878.28
 6.3235   5870.62
 6.33286   5898.73
 6.34222   5909.07
 6.35158   5918.07
 6.36094   5909.45
 6.3703   5914.44
 6.37966   5935.61
 6.38902   5943.84
 6.39838   5942.35
 6.40774   5977.69
 6.4171   6019.16
 6.42646   6025.66
 6.43582   6044.12
 6.44518   6093.25
 6.45454   6094.02
 6.4639   6123.9
 6.47326   6142.37
 6.48262   6168.92
 6.49198   6197.9
 6.50134   6195.28
 6.5107   6223.68
 6.52006   6261.93
 6.52942   6263.59
 6.53878   6292.93
 6.54814   6328.79
 6.5575   6363.86
 6.56686   6375.52
 6.57622   6408.4
 6.58558   6461.23
 6.59494   6528.83
 6.6043   6612.56
 6.61366   6625.93
 6.62302   6670.83
 6.63238   6781.09
 6.64174   6788.1
 6.6511   6855.36
 6.66046   6956.81
 6.66982   6951.98
 6.67918   7003.77
 6.68854   7018.71
 6.6979   7052.67
 6.70726   7118.23
 6.71662   7147.43
 6.72598   7153.63
 6.73534   7297.35
 6.7447   7337.08
 6.75406   7381.35
 6.76342   7511.72
 6.77278   7694.91
 6.78214   7769.64
 6.7915   7898.08
 6.80086   8029.99
 6.81022   8195.14
 6.81958   8472.81
 6.82894   8867.9
 6.8383   9482.45
 6.84766   12241.5
 6.85702   15628.5
 6.86638   27626.7
 6.87574   40087.4
 6.8851   34908.6
 6.89446   21697.7
 6.90382   13431.1
 6.91318   10901.1
 6.92254   10035.7
 6.9319   9723.25
 6.94126   9456.79
 6.95062   9521.27
 6.95998   9429.16
 6.96934   9159.69
 6.9787   9278.65
 6.98806   9236.11
 6.99742   9096.36
 7.00678   9092.79
 7.01614   8924.03
 7.0255   8777.85
 7.03486   8640.12
 7.04422   8388.87
 7.05358   8233.59
 7.06294   8163.71
 7.0723   7931.63
 7.08166   7687.13
 7.09102   7505.07
 7.10038   7408.68
 7.10974   7269.03
 7.1191   7232.89
 7.12846   7145.57
 7.13782   7102.79
 7.14718   7064.9
 7.15654   7014.07
 7.1659   6985.88
 7.17526   6996.42
 7.18462   6932.93
 7.19398   6909.19
 7.20334   6861.4
 7.2127   6854.28
 7.22206   6820.41
 7.23142   6798.76
 7.24078   6784.32
 7.25014   6813.54
 7.2595   6777.41
 7.26886   6774.24
 7.27822   6777.2
 7.28758   6782.94
 7.29694   6744.44
 7.3063   6756.09
 7.31566   6774.63
 7.32502   6793.4
 7.33438   6805.57
 7.34374   6837.76
 7.3531   6869.15
 7.36246   6892.58
 7.37182   6899.26
 7.38118   6901.43
 7.39054   6894.71
 7.3999   6910.13
 7.40926   6900.67
 7.41862   6908.81
 7.42798   6941.81
 7.43734   6966.66
 7.4467   6986.25
 7.45606   7037.77
 7.46542   7077.86
 7.47478   7126.16
 7.48414   7166.65
 7.4935   7224.05
 7.50286   7286.37
 7.51222   7372.65
 7.52158   7444.42
 7.53094   7520.63
 7.5403   7626.21
 7.54966   7672.6
 7.55902   7709.78
 7.56838   7738.74
 7.57774   7751.62
 7.5871   7717.49
 7.59646   7664.52
 7.60582   7543.7
 7.61518   7376.07
 7.62454   7165.88
 7.6339   6954.88
 7.64326   6773.71
 7.65262   6647.81
 7.66198   6542.35
 7.67134   6487.97
 7.6807   6453.43
 7.69006   6403.7
 7.69942   6371.3
 7.70878   6360.59
 7.71814   6332.93
 7.7275   6327.27
 7.73686   6307.7
 7.74622   6306.69
 7.75558   6303.32
 7.76494   6294.15
 7.7743   6333.17
 7.78366   6355.61
 7.79302   6362.42
 7.80238   6374.43
 7.81174   6380.82
 7.8211   6420.43
 7.83046   6446.74
 7.83982   6463.77
 7.84918   6470.57
 7.85854   6552.51
 7.8679   6507.63
 7.87726   6546.29
 7.88662   6656.11
 7.89598   6611.89
 7.90534   6779.94
 7.9147   7750.66
 7.92406   8868.86
 7.93342   10846.2
 7.94278   16797.9
 7.95214   15822.8
 7.9615   12724.8
 7.97086   8313.37
 7.98022   7184.84
 7.98958   6819.42
 7.99894   6543.19
 8.0083   6426.09
 8.01766   6429.05
 8.02702   6314.55
 8.03638   6287.37
 8.04574   6236.9
 8.0551   6181.13
 8.06446   6181.13
 8.07382   6231.01
 8.08318   6280.39
 8.09254   6342.21
 8.1019   6442.55
 8.11126   6477.11
 8.12062   6524.94
 8.12998   6557.01
 8.13934   6539.24
 8.1487   6569.78
 8.15806   6597.75
 8.16742   6634.44
 8.17678   6715.06
 8.18614   6831.35
 8.1955   6951.33
 8.20486   7129.5
 8.21422   7292.89
 8.22358   7441
 8.23294   7554.04
 8.2423   7591.45
 8.25166   7513.45
 8.26102   7400.83
 8.27038   7225.36
 8.27974   7046.52
 8.2891   6818.13
 8.29846   6629.09
 8.30782   6405.04
 8.31718   6212.91
 8.32654   6036.08
 8.3359   5890.07
 8.34526   5790.22
 8.35462   5774.64
 8.36398   5779.87
 8.37334   6020.83
 8.3827   6766.94
 8.39206   8322.76
 8.40142   10166.6
 8.41078   10747.9
 8.42014   9438.14
 8.4295   7570.91
 8.43886   6560.81
 8.44822   6201.12
 8.45758   6163.73
 8.46694   6195.57
 8.4763   6249.55
 8.48566   6317.47
 8.49502   6372.94
 8.50438   6401.63
 8.51374   6417.75
 8.5231   6434.15
 8.53246   6444.55
 8.54182   6435.7
 8.55118   6416.37
 8.56054   6370.96
 8.5699   6308.74
 8.57926   6228.19
 8.58862   6156.6
 8.59798   6063.71
 8.60734   5976.13
 8.6167   5919.56
 8.62606   5830.26
 8.63542   5764.95
 8.64478   5717.64
 8.65414   5678.94
 8.6635   5646.16
 8.67286   5614.14
 8.68222   5610.18
 8.69158   5606.56
 8.70094   5594.33
 8.7103   5589.43
 8.71966   5597.4
 8.72902   5590.87
 8.73838   5583.41
 8.74774   5574.76
 8.7571   5581.74
 8.76646   5566.88
 8.77582   5547.2
 8.78518   5534.69
 8.79454   5524.03
 8.8039   5502.64
 8.81326   5478.42
 8.82262   5472.61
 8.83198   5512.52
 8.84134   5650.6
 8.8507   6171.16
 8.86006   6975.94
 8.86942   7597.94
 8.87878   6464.85
 8.88814   6071.74
 8.8975   5446.8
 8.90686   5180.65
 8.91622   5101.99
 8.92558   5086.89
 8.93494   5053.47
 8.9443   5059.95
 8.95366   5042.75
 8.96302   5046.32
 8.97238   5036.09
 8.98174   5036.01
 8.9911   5026.71
 9.00046   5024.22
 9.00982   5005.66
 9.01918   4998.92
 9.02854   4973.61
 9.0379   4964.57
 9.04726   4939.95
 9.05662   4943.78
 9.06598   4937.53
 9.07534   4929.56
 9.0847   4922.57
 9.09406   4925.19
 9.10342   4926.53
 9.11278   4939.67
 9.12214   4955.19
 9.1315   4976.45
 9.14086   4980.85
 9.15022   4982.42
 9.15958   4997.88
 9.16894   5008.64
 9.1783   5029.14
 9.18766   5060.58
 9.19702   5081.42
 9.20638   5117.18
 9.21574   5169.71
 9.2251   5224.79
 9.23446   5274.73
 9.24382   5357.4
 9.25318   5433.37
 9.26254   5512.49
 9.2719   5596.6
 9.28126   5652.51
 9.29062   5698.43
 9.29998   5720.18
 9.30934   5739.32
 9.3187   5727.81
 9.32806   5724.81
 9.33742   5713.52
 9.34678   5693.48
 9.35614   5662.77
 9.3655   5635.08
 9.37486   5580.72
 9.38422   5531.86
 9.39358   5479.68
 9.40294   5437.42
 9.4123   5385.01
 9.42166   5347.46
 9.43102   5319.18
 9.44038   5292.13
 9.44974   5278.41
 9.4591   5274.18
 9.46846   5290.7
 9.47782   5299.77
 9.48718   5318.28
 9.49654   5321.61
 9.5059   5324.55
 9.51526   5325.01
 9.52462   5307.07
 9.53398   5297.32
 9.54334   5303.71
 9.5527   5312.28
 9.56206   5328.75
 9.57142   5320.96
 9.58078   5324.03
 9.59014   5331.47
 9.5995   5335.86
 9.60886   5348.78
 9.61822   5337.12
 9.62758   5325.18
 9.63694   5301.72
 9.6463   5285.51
 9.65566   5278.8
 9.66502   5257.49
 9.67438   5273.56
 9.68374   5303.77
 9.6931   5403.37
 9.70246   5877.52
 9.71182   5893.1
 9.72118   6030.71
 9.73054   5820.97
 9.7399   5510.04
 9.74926   5245.04
 9.75862   5159.27
 9.76798   5140.95
 9.77734   5157.52
 9.7867   5181.95
 9.79606   5241.25
 9.80542   5349.83
 9.81478   5509.06
 9.82414   5859.29
 9.8335   6698.46
 9.84286   8475.82
 9.85222   11216.1
 9.86158   13161.2
 9.87094   12336.2
 9.8803   9740.81
 9.88966   7492.05
 9.89902   6335.9
 9.90838   5835.93
 9.91774   5642.09
 9.9271   5567.62
 9.93646   5505.76
 9.94582   5481.36
 9.95518   5467.99
 9.96454   5453.14
 9.9739   5438.86
 9.98326   5424.62
 9.99262   5414.41
 10.002   5397.22
 10.0113   5372.71
 10.0207   5348.88
 10.0301   5312.31
 10.0394   5272.26
 10.0488   5244.47
 10.0581   5228.64
 10.0675   5203.46
 10.0769   5207.31
 10.0862   5175.83
 10.0956   5178.01
 10.1049   5176.94
 10.1143   5165.1
 10.1237   5164.82
 10.133   5177.36
 10.1424   5198.32
 10.1517   5203.09
 10.1611   5210.78
 10.1705   5240.33
 10.1798   5235.38
 10.1892   5229.65
 10.1985   5262.21
 10.2079   5279.86
 10.2173   5286.6
 10.2266   5292.73
 10.236   5295.15
 10.2453   5313.05
 10.2547   5355.6
 10.2641   5464.42
 10.2734   5779.95
 10.2828   6518.01
 10.2921   7733.28
 10.3015   8520.17
 10.3109   8141.6
 10.3202   6850.9
 10.3296   5961.07
 10.3389   5457.38
 10.3483   5272.17
 10.3577   5202.11
 10.367   5197.13
 10.3764   5168.79
 10.3857   5156.21
 10.3951   5160.08
 10.4045   5193.62
 10.4138   5167.27
 10.4232   5178.4
 10.4325   5176.22
 10.4419   5253.52
 10.4513   5241.33
 10.4606   5296.97
 10.47   5368.92
 10.4793   5519.71
 10.4887   5654.17
 10.4981   6003.37
 10.5074   6006.16
 10.5168   6066.39
 10.5261   5714.19
 10.5355   5453.01
 10.5449   5308.13
 10.5542   5259.99
 10.5636   5211.85
 10.5729   5182.9
 10.5823   5155.57
 10.5917   5154.27
 10.601   5131.62
 10.6104   5104.39
 10.6197   5103.77
 10.6291   5101.81
 10.6385   5077.7
 10.6478   5058.61
 10.6572   5064.64
 10.6665   5058.66
 10.6759   5043.22
 10.6853   5034.73
 10.6946   5038.33
 10.704   5037.89
 10.7133   5058.87
 10.7227   5054.6
 10.7321   5063
 10.7414   5082.74
 10.7508   5109.37
 10.7601   5097.93
 10.7695   5099.73
 10.7789   5105.96
 10.7882   5094.1
 10.7976   5088.65
 10.8069   5052.69
 10.8163   5051.99
 10.8257   5046.37
 10.835   5038.66
 10.8444   5035.64
 10.8537   5012.54
 10.8631   5014.54
 10.8725   5001.19
 10.8818   4977.76
 10.8912   4952.69
 10.9005   4933.87
 10.9099   4918.37
 10.9193   4892.57
 10.9286   4872.36
 10.938   4862.34
 10.9473   4842.21
 10.9567   4823.23
 10.9661   4824.01
 10.9754   4811.15
 10.9848   4794.74
 10.9941   4782.3
 11.0035   4773.54
 11.0129   4787.56
 11.0222   4787.37
 11.0316   4786.08
 11.0409   4800.41
 11.0503   4816.97
 11.0597   4826.32
 11.069   4834.4
 11.0784   4859.98
 11.0877   4883.47
 11.0971   4909.02
 11.1065   4950.11
 11.1158   4991.74
 11.1252   5019.92
 11.1345   5039.64
 11.1439   5031.46
 11.1533   5020.69
 11.1626   4996.85
 11.172   4986.81
 11.1813   4955.26
 11.1907   4910.37
 11.2001   4874.43
 11.2094   4908.68
 11.2188   4934.34
 11.2281   4850.53
 11.2375   4839.61
 11.2469   4818.07
 11.2562   4804.08
 11.2656   4775.81
 11.2749   4754.94
 11.2843   4732.39
 11.2937   4731.52
 11.303   4709.96
 11.3124   4687.32
 11.3217   4669.8
 11.3311   4659.62
 11.3405   4639.45
 11.3498   4617.12
 11.3592   4602.14
 11.3685   4588.71
 11.3779   4580.98
 11.3873   4561.52
 11.3966   4542.96
 11.406   4546.03
 11.4153   4538.08
 11.4247   4529.12
 11.4341   4511.02
 11.4434   4519.05
 11.4528   4509.25
 11.4621   4497.79
 11.4715   4487.3
 11.4809   4491.07
 11.4902   4486.79
 11.4996   4492.76
 11.5089   4474.73
 11.5183   4462.51
 11.5277   4464.29
 11.537   4442.17
 11.5464   4427.68
 11.5557   4406.74
 11.5651   4408.12
 11.5745   4403.3
 11.5838   4394.16
 11.5932   4387.48
 11.6025   4382.58
 11.6119   4384.24
 11.6213   4385.63
 11.6306   4374.86
 11.64   4378.66
 11.6493   4370.93
 11.6587   4351.55
 11.6681   4342.06
 11.6774   4342.06
 11.6868   4335.16
 11.6961   4334.83
 11.7055   4330.74
 11.7149   4326.46
 11.7242   4322.93
 11.7336   4332.81
 11.7429   4318.74
 11.7523   4327.47
 11.7617   4330.72
 11.771   4328.34
 11.7804   4329.96
 11.7897   4342.31
 11.7991   4335.73
 11.8085   4340.22
 11.8178   4348.38
 11.8272   4352.13
 11.8365   4353.34
 11.8459   4372.79
 11.8553   4380.8
 11.8646   4414.15
 11.874   4490.26
 11.8833   4634.53
 11.8927   4858
 11.9021   5072.03
 11.9114   5015.54
 11.9208   4793.73
 11.9301   4617.76
 11.9395   4511.1
 11.9489   4480.31
 11.9582   4469.4
 11.9676   4485.15
 11.9769   4480.4
 11.9863   4498.56
 11.9957   4498.17
 12.005   4509.55
 12.0144   4514.18
 12.0237   4493.92
 12.0331   4493.52
 12.0425   4493.05
 12.0518   4496.01
 12.0612   4485.02
 12.0705   4487.95
 12.0799   4489.33
 12.0893   4474.73
 12.0986   4476.76
 12.108   4454.32
 12.1173   4447.17
 12.1267   4413.43
 12.1361   4383.06
 12.1454   4348.47
 12.1548   4313.25
 12.1641   4271.39
 12.1735   4238.64
 12.1829   4203.81
 12.1922   4181.48
 12.2016   4154.31
 12.2109   4145.93
 12.2203   4127.45
 12.2297   4116.94
 12.239   4107.37
 12.2484   4100.17
 12.2577   4094.64
 12.2671   4089.13
 12.2765   4091.15
 12.2858   4091.23
 12.2952   4087.57
 12.3045   4086.78
 12.3139   4094.31
 12.3233   4086.63
 12.3326   4086.12
 12.342   4096.51
 12.3513   4097.15
 12.3607   4102.29
 12.3701   4107.08
 12.3794   4113.84
 12.3888   4125.44
 12.3981   4133.4
 12.4075   4135.03
 12.4169   4139.04
 12.4262   4147.95
 12.4356   4141.13
 12.4449   4153.02
 12.4543   4154.83
 12.4637   4172.71
 12.473   4189.24
 12.4824   4190.51
 12.4917   4187.56
 12.5011   4185.8
 12.5105   4191.08
 12.5198   4181.76
 12.5292   4172.37
 12.5385   4173.49
 12.5479   4191.32
 12.5573   4219.79
 12.5666   4204.98
 12.576   4218.61
 12.5853   4219.34
 12.5947   4204.83
 12.6041   4226.49
 12.6134   4237.26
 12.6228   4248.64
 12.6321   4256.28
 12.6415   4254.08
 12.6509   4244.72
 12.6602   4252.87
 12.6696   4241.07
 12.6789   4232.4
 12.6883   4216.94
 12.6977   4216.09